Folder: Ashfield-REE/clay-plate-XRD-S2-2022

Note: README.md
# Ashfield-REE
paper(s) from Ashfield 2019-2022 data, first on REE but later ones maybe not

File: ENVT4461 S-01 Mg+Gly.csv
"Angle","Counts"
3.00243,27470
3.10023,24763
3.19803,22695
3.29583,20470
3.39363,18604
3.49142,17105
3.58922,15520
3.68702,14372
3.78482,12867
3.88261,11902
3.98041,10902
4.07821,10178
4.17601,9186
4.27381,8449
4.3716,7762
4.4694,7088
4.5672,6697
4.665,6210
4.7628,5585
4.86059,5176
4.95839,4957
5.05619,4552
5.15399,4289
5.25179,4191
5.34958,3780
5.44738,3547
5.54518,3391
5.64298,3160
5.74078,3083
5.83857,3053
5.93637,2917
6.03417,2979
6.13197,2946
6.22977,2838
6.32756,2821
6.42536,2818
6.52316,2800
6.62096,2783
6.71876,2747
6.81655,2813
6.91435,2793
7.01215,2698
7.10995,2651
7.20775,2713
7.30554,2747
7.40334,2686
7.50114,2643
7.59894,2560
7.69674,2597
7.79453,2565
7.89233,2515
7.99013,2557
8.08793,2531
8.18573,2478
8.28352,2558
8.38132,2570
8.47912,2598
8.57692,2682
8.67471,2540
8.77251,2642
8.87031,2637
8.96811,2650
9.06591,2587
9.1637,2622
9.2615,2563
9.3593,2663
9.4571,2695
9.5549,2640
9.65269,2671
9.75049,2894
9.84829,2790
9.94609,2748
10.0439,2680
10.1417,2576
10.2395,2643
10.3373,2524
10.4351,2656
10.5329,2618
10.6307,2615
10.7285,2721
10.8263,2782
10.9241,2825
11.0219,2867
11.1197,2830
11.2175,3186
11.3153,3490
11.4131,3454
11.5109,2810
11.6087,2859
11.7065,2751
11.8042,2784
11.902,2841
11.9998,2796
12.0976,2929
12.1954,2754
12.2932,2848
12.391,2933
12.4888,2901
12.5866,2940
12.6844,2901
12.7822,2870
12.88,2946
12.9778,2997
13.0756,3128
13.1734,3267
13.2712,3244
13.369,3525
13.4668,3616
13.5646,3869
13.6624,4344
13.7602,4777
13.858,5387
13.9558,5491
14.0536,4830
14.1514,3761
14.2492,3381
14.347,3073
14.4448,2865
14.5426,2774
14.6404,2753
14.7382,2680
14.836,2630
14.9338,2618
15.0316,2487
15.1294,2426
15.2272,2410
15.325,2478
15.4228,2549
15.5206,2444
15.6184,2547
15.7162,2619
15.814,2911
15.9118,3470
16.0096,4609
16.1074,7871
16.2052,14535
16.303,13643
16.4008,3533
16.4986,2896
16.5963,2766
16.6941,2872
16.7919,3110
16.8897,3023
16.9875,2620
17.0853,2280
17.1831,2295
17.2809,2211
17.3787,2184
17.4765,2176
17.5743,2150
17.6721,2173
17.7699,2105
17.8677,2091
17.9655,2132
18.0633,2159
18.1611,2078
18.2589,2055
18.3567,1984
18.4545,1966
18.5523,2228
18.6501,2142
18.7479,1997
18.8457,2012
18.9435,1991
19.0413,2040
19.1391,1996
19.2369,1996
19.3347,2161
19.4325,1982
19.5303,1928
19.6281,1932
19.7259,2023
19.8237,1992
19.9215,1915
20.0193,2045
20.1171,1993
20.2149,1989
20.3127,2084
20.4105,2003
20.5083,1962
20.6061,2025
20.7039,2019
20.8017,2121
20.8995,2269
20.9973,2141
21.0951,2024
21.1929,2022
21.2907,1944
21.3884,2025
21.4862,2030
21.584,2096
21.6818,1967
21.7796,1973
21.8774,2010
21.9752,2016
22.073,2053
22.1708,1998
22.2686,2002
22.3664,2118
22.4642,2141
22.562,2323
22.6598,2649
22.7576,2829
22.8554,3339
22.9532,4591
23.051,3453
23.1488,2714
23.2466,2720
23.3444,2536
23.4422,2454
23.54,2676
23.6378,2712
23.7356,3463
23.8334,5053
23.9312,4175
24.029,2794
24.1268,2497
24.2246,2443
24.3224,2452
24.4202,2426
24.518,2564
24.6158,2513
24.7136,2593
24.8114,2885
24.9092,3268
25.007,4128
25.1048,4644
25.2026,4568
25.3004,3368
25.3982,2643
25.496,2408
25.5938,2416
25.6916,2335
25.7894,2331
25.8872,2420
25.985,2911
26.0828,3895
26.1805,2607
26.2783,2141
26.3761,2144
26.4739,2079
26.5717,2154
26.6695,2130
26.7673,2111
26.8651,2182
26.9629,2257
27.0607,2481
27.1585,2364
27.2563,2180
27.3541,2242
27.4519,2344
27.5497,2444
27.6475,2534
27.7453,2512
27.8431,2545
27.9409,2406
28.0387,2549
28.1365,2494
28.2343,2535
28.3321,2735
28.4299,3027
28.5277,3382
28.6255,3502
28.7233,3085
28.8211,2686
28.9189,2537
29.0167,2419
29.1145,2427
29.2123,2192
29.3101,2233
29.4079,2112
29.5057,2263
29.6035,2347
29.7013,2082
29.7991,2139
29.8969,2157
29.9947,2139

File: ENVT4461 S-01 Mg.csv
"Angle","Counts"
3.00243,25462
3.10023,22972
3.19803,20955
3.29583,18928
3.39363,17424
3.49142,15877
3.58922,14484
3.68702,13554
3.78482,12297
3.88261,11223
3.98041,10405
4.07821,9529
4.17601,8749
4.27381,8056
4.3716,7413
4.4694,6867
4.5672,6323
4.665,5923
4.7628,5266
4.86059,5007
4.95839,4677
5.05619,4480
5.15399,4046
5.25179,3786
5.34958,3684
5.44738,3517
5.54518,3310
5.64298,3185
5.74078,3094
5.83857,3017
5.93637,3025
6.03417,2930
6.13197,2956
6.22977,2843
6.32756,2932
6.42536,2862
6.52316,2857
6.62096,2832
6.71876,2968
6.81655,2898
6.91435,2936
7.01215,2893
7.10995,2855
7.20775,2750
7.30554,2867
7.40334,2752
7.50114,2767
7.59894,2718
7.69674,2700
7.79453,2675
7.89233,2687
7.99013,2597
8.08793,2560
8.18573,2554
8.28352,2637
8.38132,2680
8.47912,2574
8.57692,2596
8.67471,2562
8.77251,2632
8.87031,2577
8.96811,2557
9.06591,2561
9.1637,2574
9.2615,2625
9.3593,2669
9.4571,2698
9.5549,2751
9.65269,2714
9.75049,2753
9.84829,2938
9.94609,2922
10.0439,2729
10.1417,2718
10.2395,2735
10.3373,2807
10.4351,2755
10.5329,2777
10.6307,2594
10.7285,2727
10.8263,2746
10.9241,2819
11.0219,2934
11.1197,2908
11.2175,3138
11.3153,3576
11.4131,3576
11.5109,2871
11.6087,2775
11.7065,2913
11.8042,2889
11.902,2831
11.9998,2853
12.0976,2803
12.1954,2861
12.2932,2918
12.391,2986
12.4888,2932
12.5866,2972
12.6844,3065
12.7822,2957
12.88,3109
12.9778,3107
13.0756,3381
13.1734,3385
13.2712,3532
13.369,3534
13.4668,3874
13.5646,4065
13.6624,4494
13.7602,4872
13.858,5487
13.9558,6058
14.0536,5187
14.1514,4122
14.2492,3547
14.347,3216
14.4448,2989
14.5426,2872
14.6404,2851
14.7382,2768
14.836,2578
14.9338,2491
15.0316,2548
15.1294,2559
15.2272,2539
15.325,2510
15.4228,2510
15.5206,2576
15.6184,2705
15.7162,2702
15.814,2936
15.9118,3577
16.0096,4808
16.1074,8428
16.2052,15348
16.303,16932
16.4008,3934
16.4986,3001
16.5963,2876
16.6941,2905
16.7919,3174
16.8897,3393
16.9875,2726
17.0853,2459
17.1831,2392
17.2809,2263
17.3787,2257
17.4765,2303
17.5743,2232
17.6721,2272
17.7699,2259
17.8677,2220
17.9655,2141
18.0633,2278
18.1611,2213
18.2589,2170
18.3567,2145
18.4545,2144
18.5523,2145
18.6501,2231
18.7479,2194
18.8457,2065
18.9435,2026
19.0413,2003
19.1391,2110
19.2369,2190
19.3347,2153
19.4325,2032
19.5303,2029
19.6281,2084
19.7259,2002
19.8237,1997
19.9215,2139
20.0193,2047
20.1171,2083
20.2149,2063
20.3127,2142
20.4105,2075
20.5083,2039
20.6061,2078
20.7039,2135
20.8017,2153
20.8995,2314
20.9973,2074
21.0951,2071
21.1929,2030
21.2907,2003
21.3884,1998
21.4862,2146
21.584,2027
21.6818,2043
21.7796,2001
21.8774,2007
21.9752,2012
22.073,2022
22.1708,1917
22.2686,2156
22.3664,2204
22.4642,2325
22.562,2451
22.6598,2750
22.7576,3129
22.8554,3635
22.9532,5160
23.051,4068
23.1488,2878
23.2466,2803
23.3444,2710
23.4422,2698
23.54,2687
23.6378,2827
23.7356,3279
23.8334,4112
23.9312,3566
24.029,2754
24.1268,2708
24.2246,2562
24.3224,2587
24.4202,2680
24.518,2680
24.6158,2783
24.7136,2659
24.8114,2685
24.9092,3013
25.007,3390
25.1048,3781
25.2026,3620
25.3004,2973
25.3982,2534
25.496,2414
25.5938,2424
25.6916,2428
25.7894,2349
25.8872,2443
25.985,3053
26.0828,4330
26.1805,2820
26.2783,2340
26.3761,2317
26.4739,2221
26.5717,2189
26.6695,2239
26.7673,2088
26.8651,2221
26.9629,2248
27.0607,2394
27.1585,2238
27.2563,2234
27.3541,2323
27.4519,2483
27.5497,2449
27.6475,2683
27.7453,2735
27.8431,2649
27.9409,2574
28.0387,2730
28.1365,2638
28.2343,2709
28.3321,2914
28.4299,3475
28.5277,3781
28.6255,4170
28.7233,3696
28.8211,3089
28.9189,2864
29.0167,2745
29.1145,2568
29.2123,2375
29.3101,2360
29.4079,2287
29.5057,2280
29.6035,2268
29.7013,2160
29.7991,2290
29.8969,2176
29.9947,2231

File: ENVT4461 S-12 Heated-400.csv
"Angle","Counts"
3.00243,24683
3.10023,22666
3.19803,20538
3.29583,18801
3.39363,17276
3.49142,15951
3.58922,14867
3.68702,13860
3.78482,12908
3.88261,11970
3.98041,11047
4.07821,10810
4.17601,10236
4.27381,9574
4.3716,9241
4.4694,8841
4.5672,8266
4.665,8081
4.7628,7955
4.86059,7493
4.95839,7520
5.05619,7331
5.15399,7148
5.25179,7104
5.34958,7029
5.44738,6863
5.54518,6903
5.64298,6857
5.74078,6759
5.83857,6845
5.93637,6841
6.03417,6879
6.13197,6934
6.22977,6945
6.32756,6824
6.42536,6873
6.52316,7009
6.62096,7153
6.71876,7086
6.81655,7033
6.91435,7137
7.01215,7060
7.10995,7130
7.20775,7366
7.30554,7313
7.40334,7317
7.50114,7300
7.59894,7439
7.69674,7290
7.79453,7521
7.89233,7581
7.99013,7656
8.08793,7579
8.18573,7536
8.28352,7623
8.38132,7809
8.47912,8066
8.57692,7733
8.67471,8122
8.77251,8125
8.87031,8048
8.96811,8202
9.06591,8242
9.1637,8371
9.2615,8745
9.3593,8656
9.4571,8757
9.5549,8851
9.65269,9238
9.75049,9518
9.84829,9661
9.94609,9616
10.0439,9111
10.1417,8672
10.2395,8508
10.3373,8384
10.4351,8157
10.5329,8238
10.6307,8052
10.7285,7885
10.8263,7558
10.9241,7400
11.0219,7428
11.1197,7353
11.2175,7148
11.3153,7003
11.4131,7035
11.5109,6780
11.6087,6720
11.7065,6771
11.8042,6741
11.902,6451
11.9998,6540
12.0976,6575
12.1954,6660
12.2932,6693
12.391,6641
12.4888,6654
12.5866,6697
12.6844,6761
12.7822,6780
12.88,7065
12.9778,7127
13.0756,7389
13.1734,7725
13.2712,8052
13.369,8587
13.4668,9760
13.5646,10984
13.6624,12984
13.7602,15771
13.858,19236
13.9558,21878
14.0536,19159
14.1514,12658
14.2492,8959
14.347,6932
14.4448,5812
14.5426,5295
14.6404,4803
14.7382,4506
14.836,4306
14.9338,4071
15.0316,3811
15.1294,3664
15.2272,3607
15.325,3442
15.4228,3394
15.5206,3422
15.6184,3216
15.7162,3297
15.814,3210
15.9118,3095
16.0096,3116
16.1074,3007
16.2052,3066
16.303,2933
16.4008,2892
16.4986,2927
16.5963,2842
16.6941,2811
16.7919,2876
16.8897,2796
16.9875,2763
17.0853,2841
17.1831,2752
17.2809,2679
17.3787,2666
17.4765,2735
17.5743,2723
17.6721,2695
17.7699,2630
17.8677,2730
17.9655,2543
18.0633,2697
18.1611,2694
18.2589,2626
18.3567,2643
18.4545,2581
18.5523,2621
18.6501,2585
18.7479,2596
18.8457,2581
18.9435,2592
19.0413,2540
19.1391,2683
19.2369,2574
19.3347,2613
19.4325,2559
19.5303,2603
19.6281,2617
19.7259,2654
19.8237,2657
19.9215,2723
20.0193,2717
20.1171,2866
20.2149,2948
20.3127,3036
20.4105,2771
20.5083,2696
20.6061,2645
20.7039,2617
20.8017,2645
20.8995,2517
20.9973,2535
21.0951,2577
21.1929,2440
21.2907,2491
21.3884,2493
21.4862,2483
21.584,2456
21.6818,2384
21.7796,2463
21.8774,2450
21.9752,2495
22.073,2565
22.1708,2612
22.2686,2722
22.3664,2760
22.4642,3020
22.562,3173
22.6598,3196
22.7576,3273
22.8554,3314
22.9532,3192
23.051,3205
23.1488,3142
23.2466,3175
23.3444,3073
23.4422,3181
23.54,2993
23.6378,2962
23.7356,3201
23.8334,3284
23.9312,3451
24.029,3021
24.1268,3082
24.2246,2926
24.3224,2861
24.4202,2970
24.518,2762
24.6158,2889
24.7136,2897
24.8114,2823
24.9092,2913
25.007,2994
25.1048,3067
25.2026,3137
25.3004,3016
25.3982,2874
25.496,2910
25.5938,2905
25.6916,2869
25.7894,2827
25.8872,2857
25.985,2950
26.0828,2793
26.1805,2839
26.2783,2843
26.3761,2906
26.4739,2973
26.5717,2884
26.6695,3004
26.7673,3036
26.8651,2961
26.9629,3156
27.0607,3213
27.1585,3132
27.2563,3235
27.3541,3285
27.4519,3425
27.5497,3625
27.6475,3724
27.7453,3755
27.8431,4108
27.9409,4395
28.0387,4719
28.1365,5275
28.2343,6224
28.3321,7333
28.4299,9624
28.5277,13534
28.6255,16404
28.7233,13915
28.8211,10434
28.9189,8756
29.0167,7652
29.1145,7027
29.2123,6578
29.3101,6229
29.4079,5770
29.5057,5614
29.6035,5366
29.7013,5089
29.7991,5127
29.8969,4942
29.9947,4853

File: ENVT4461 S-12 Heated-550.csv
"Angle","Counts"
3.00243,25861
3.10023,23616
3.19803,21497
3.29583,19478
3.39363,18273
3.49142,17163
3.58922,15752
3.68702,14668
3.78482,13587
3.88261,12553
3.98041,11856
4.07821,11040
4.17601,10621
4.27381,9806
4.3716,9404
4.4694,8935
4.5672,8456
4.665,8166
4.7628,7846
4.86059,7507
4.95839,7257
5.05619,7082
5.15399,6914
5.25179,6790
5.34958,6561
5.44738,6488
5.54518,6320
5.64298,6250
5.74078,6216
5.83857,6167
5.93637,6247
6.03417,6435
6.13197,6064
6.22977,6336
6.32756,6383
6.42536,6496
6.52316,6413
6.62096,6447
6.71876,6390
6.81655,6451
6.91435,6607
7.01215,6482
7.10995,6656
7.20775,6549
7.30554,6747
7.40334,6696
7.50114,6728
7.59894,6958
7.69674,6927
7.79453,7029
7.89233,7183
7.99013,7215
8.08793,7091
8.18573,7131
8.28352,7424
8.38132,7372
8.47912,7515
8.57692,7522
8.67471,7602
8.77251,7812
8.87031,7860
8.96811,7623
9.06591,8007
9.1637,7877
9.2615,8125
9.3593,8236
9.4571,8459
9.5549,8677
9.65269,8926
9.75049,9255
9.84829,9478
9.94609,9336
10.0439,8821
10.1417,8242
10.2395,8030
10.3373,7870
10.4351,7726
10.5329,7364
10.6307,7242
10.7285,7030
10.8263,6696
10.9241,6315
11.0219,5919
11.1197,5650
11.2175,5508
11.3153,5255
11.4131,5066
11.5109,4758
11.6087,4530
11.7065,4533
11.8042,4358
11.902,4140
11.9998,3992
12.0976,3980
12.1954,3736
12.2932,3690
12.391,3621
12.4888,3443
12.5866,3424
12.6844,3342
12.7822,3277
12.88,3270
12.9778,3242
13.0756,3220
13.1734,3089
13.2712,3118
13.369,3150
13.4668,3088
13.5646,3173
13.6624,2985
13.7602,3101
13.858,3030
13.9558,2879
14.0536,2959
14.1514,2878
14.2492,2918
14.347,2831
14.4448,2863
14.5426,2862
14.6404,2887
14.7382,2893
14.836,2976
14.9338,2988
15.0316,2933
15.1294,2857
15.2272,2838
15.325,2943
15.4228,2821
15.5206,2922
15.6184,2887
15.7162,2829
15.814,2820
15.9118,2715
16.0096,2697
16.1074,2811
16.2052,2711
16.303,2822
16.4008,2775
16.4986,2752
16.5963,2770
16.6941,2846
16.7919,2730
16.8897,2746
16.9875,2756
17.0853,2702
17.1831,2723
17.2809,2816
17.3787,2821
17.4765,2817
17.5743,2751
17.6721,2770
17.7699,2773
17.8677,2823
17.9655,2677
18.0633,2714
18.1611,2879
18.2589,2867
18.3567,2932
18.4545,2803
18.5523,2898
18.6501,2996
18.7479,2874
18.8457,2787
18.9435,2912
19.0413,2873
19.1391,2870
19.2369,2871
19.3347,2937
19.4325,2970
19.5303,2999
19.6281,3021
19.7259,3109
19.8237,3125
19.9215,3246
20.0193,3175
20.1171,3412
20.2149,3346
20.3127,3341
20.4105,3160
20.5083,3041
20.6061,3065
20.7039,3066
20.8017,2967
20.8995,3034
20.9973,2969
21.0951,3037
21.1929,2927
21.2907,2977
21.3884,3002
21.4862,2949
21.584,2950
21.6818,3092
21.7796,2991
21.8774,2897
21.9752,2909
22.073,2995
22.1708,2944
22.2686,2989
22.3664,3150
22.4642,3230
22.562,3436
22.6598,3392
22.7576,3461
22.8554,3333
22.9532,3427
23.051,3346
23.1488,3247
23.2466,3288
23.3444,3186
23.4422,3253
23.54,3262
23.6378,3272
23.7356,3397
23.8334,3679
23.9312,3660
24.029,3349
24.1268,3303
24.2246,3194
24.3224,3113
24.4202,3166
24.518,3098
24.6158,3231
24.7136,3219
24.8114,3195
24.9092,3189
25.007,3408
25.1048,3450
25.2026,3342
25.3004,3331
25.3982,3223
25.496,3241
25.5938,3169
25.6916,3166
25.7894,3207
25.8872,3232
25.985,3121
26.0828,3195
26.1805,3187
26.2783,3102
26.3761,3116
26.4739,3171
26.5717,3198
26.6695,3230
26.7673,3256
26.8651,3142
26.9629,3162
27.0607,3354
27.1585,3213
27.2563,3155
27.3541,3117
27.4519,3228
27.5497,3210
27.6475,3178
27.7453,3267
27.8431,3215
27.9409,3310
28.0387,3229
28.1365,3156
28.2343,3207
28.3321,3177
28.4299,3080
28.5277,3204
28.6255,3320
28.7233,3309
28.8211,3350
28.9189,3468
29.0167,3642
29.1145,3732
29.2123,3741
29.3101,3671
29.4079,3707
29.5057,3574
29.6035,3619
29.7013,3785
29.7991,3774
29.8969,3823
29.9947,4054

File: ENVT4461 S-12 Mg+Gly.csv
"Angle","Counts"
3.00243,25687
3.10023,23066
3.19803,20688
3.29583,19202
3.39363,17939
3.49142,16560
3.58922,15374
3.68702,14164
3.78482,13453
3.88261,12769
3.98041,11838
4.07821,11555
4.17601,10889
4.27381,10482
4.3716,10377
4.4694,9999
4.5672,9692
4.665,9659
4.7628,9449
4.86059,9450
4.95839,9484
5.05619,9534
5.15399,9580
5.25179,9876
5.34958,9669
5.44738,9696
5.54518,10032
5.64298,10035
5.74078,10198
5.83857,10417
5.93637,10231
6.03417,10651
6.13197,10510
6.22977,10543
6.32756,10772
6.42536,10552
6.52316,10579
6.62096,10638
6.71876,10372
6.81655,10334
6.91435,10310
7.01215,10145
7.10995,9952
7.20775,9703
7.30554,9539
7.40334,9284
7.50114,9026
7.59894,9109
7.69674,8839
7.79453,8468
7.89233,8290
7.99013,8229
8.08793,8134
8.18573,7927
8.28352,7739
8.38132,7739
8.47912,7476
8.57692,7519
8.67471,7191
8.77251,7266
8.87031,7162
8.96811,7093
9.06591,6947
9.1637,6991
9.2615,7031
9.3593,6901
9.4571,7068
9.5549,6928
9.65269,6951
9.75049,7461
9.84829,7418
9.94609,7112
10.0439,6569
10.1417,6320
10.2395,6273
10.3373,6254
10.4351,6133
10.5329,6081
10.6307,6149
10.7285,5994
10.8263,5903
10.9241,5793
11.0219,5847
11.1197,5786
11.2175,5797
11.3153,5686
11.4131,5677
11.5109,5686
11.6087,5778
11.7065,5788
11.8042,5687
11.902,5858
11.9998,5733
12.0976,5837
12.1954,5966
12.2932,6116
12.391,5959
12.4888,6188
12.5866,6262
12.6844,6255
12.7822,6412
12.88,6737
12.9778,6867
13.0756,7128
13.1734,7505
13.2712,8069
13.369,8694
13.4668,9806
13.5646,11131
13.6624,13293
13.7602,16236
13.858,20054
13.9558,22389
14.0536,18651
14.1514,11972
14.2492,8635
14.347,6820
14.4448,6025
14.5426,5243
14.6404,4833
14.7382,4477
14.836,4240
14.9338,4090
15.0316,3900
15.1294,3721
15.2272,3567
15.325,3453
15.4228,3393
15.5206,3412
15.6184,3352
15.7162,3146
15.814,3182
15.9118,3220
16.0096,3017
16.1074,3114
16.2052,3049
16.303,3169
16.4008,2904
16.4986,2964
16.5963,2945
16.6941,2913
16.7919,2929
16.8897,2863
16.9875,2709
17.0853,2772
17.1831,2692
17.2809,2819
17.3787,2685
17.4765,2744
17.5743,2760
17.6721,2703
17.7699,2639
17.8677,2653
17.9655,2662
18.0633,2651
18.1611,2667
18.2589,2731
18.3567,2773
18.4545,2649
18.5523,2626
18.6501,2585
18.7479,2617
18.8457,2495
18.9435,2626
19.0413,2537
19.1391,2559
19.2369,2599
19.3347,2632
19.4325,2620
19.5303,2714
19.6281,2571
19.7259,2663
19.8237,2706
19.9215,2631
20.0193,2689
20.1171,2869
20.2149,3058
20.3127,3005
20.4105,2900
20.5083,2762
20.6061,2705
20.7039,2635
20.8017,2650
20.8995,2708
20.9973,2712
21.0951,2611
21.1929,2634
21.2907,2565
21.3884,2587
21.4862,2455
21.584,2555
21.6818,2528
21.7796,2543
21.8774,2401
21.9752,2523
22.073,2546
22.1708,2640
22.2686,2709
22.3664,2856
22.4642,3011
22.562,3203
22.6598,3305
22.7576,3550
22.8554,3271
22.9532,3290
23.051,3130
23.1488,3142
23.2466,3214
23.3444,3000
23.4422,3121
23.54,3000
23.6378,3130
23.7356,3091
23.8334,3394
23.9312,3317
24.029,3230
24.1268,3088
24.2246,3059
24.3224,2973
24.4202,2946
24.518,2979
24.6158,2937
24.7136,2984
24.8114,2914
24.9092,2972
25.007,3171
25.1048,3202
25.2026,3102
25.3004,3065
25.3982,2905
25.496,2848
25.5938,2977
25.6916,2937
25.7894,2953
25.8872,3013
25.985,2992
26.0828,3030
26.1805,2940
26.2783,3044
26.3761,3020
26.4739,3072
26.5717,2979
26.6695,3072
26.7673,3136
26.8651,3028
26.9629,3290
27.0607,3321
27.1585,3440
27.2563,3277
27.3541,3477
27.4519,3440
27.5497,3737
27.6475,3866
27.7453,3903
27.8431,4285
27.9409,4592
28.0387,5047
28.1365,5697
28.2343,6613
28.3321,8025
28.4299,10480
28.5277,14451
28.6255,16421
28.7233,13342
28.8211,10085
28.9189,8406
29.0167,7328
29.1145,6846
29.2123,6195
29.3101,5735
29.4079,5411
29.5057,5139
29.6035,5068
29.7013,4831
29.7991,4666
29.8969,4702
29.9947,4556

File: ENVT4461 S-12 Mg.csv
"Angle","Counts"
3.00243,25431
3.10023,22796
3.19803,20517
3.29583,18981
3.39363,17429
3.49142,16277
3.58922,15160
3.68702,14151
3.78482,13414
3.88261,12589
3.98041,11895
4.07821,11262
4.17601,10946
4.27381,10364
4.3716,10355
4.4694,9838
4.5672,9597
4.665,9603
4.7628,9435
4.86059,9493
4.95839,9294
5.05619,9412
5.15399,9352
5.25179,9762
5.34958,9774
5.44738,9686
5.54518,9882
5.64298,9945
5.74078,10129
5.83857,10463
5.93637,10240
6.03417,10210
6.13197,10365
6.22977,10388
6.32756,10581
6.42536,10252
6.52316,10405
6.62096,10416
6.71876,10121
6.81655,9982
6.91435,9758
7.01215,9792
7.10995,9427
7.20775,9229
7.30554,9140
7.40334,8939
7.50114,8625
7.59894,8540
7.69674,8356
7.79453,8124
7.89233,7932
7.99013,8062
8.08793,7693
8.18573,7468
8.28352,7428
8.38132,7296
8.47912,7357
8.57692,7077
8.67471,6908
8.77251,6816
8.87031,6693
8.96811,6639
9.06591,6671
9.1637,6687
9.2615,6596
9.3593,6523
9.4571,6578
9.5549,6720
9.65269,6750
9.75049,7001
9.84829,7141
9.94609,6854
10.0439,6341
10.1417,6127
10.2395,5945
10.3373,6001
10.4351,5909
10.5329,5912
10.6307,5771
10.7285,5740
10.8263,5777
10.9241,5568
11.0219,5654
11.1197,5700
11.2175,5535
11.3153,5708
11.4131,5608
11.5109,5501
11.6087,5674
11.7065,5651
11.8042,5545
11.902,5516
11.9998,5712
12.0976,5758
12.1954,5908
12.2932,5952
12.391,6027
12.4888,6070
12.5866,6226
12.6844,6285
12.7822,6467
12.88,6646
12.9778,6902
13.0756,7198
13.1734,7534
13.2712,7990
13.369,8575
13.4668,9442
13.5646,10913
13.6624,12877
13.7602,15567
13.858,19022
13.9558,20472
14.0536,16662
14.1514,10860
14.2492,8093
14.347,6566
14.4448,5772
14.5426,5183
14.6404,4895
14.7382,4468
14.836,4219
14.9338,4035
15.0316,3888
15.1294,3740
15.2272,3638
15.325,3610
15.4228,3479
15.5206,3564
15.6184,3381
15.7162,3375
15.814,3153
15.9118,3308
16.0096,3177
16.1074,3323
16.2052,3258
16.303,3173
16.4008,3085
16.4986,3085
16.5963,2967
16.6941,3006
16.7919,2986
16.8897,2952
16.9875,2980
17.0853,2945
17.1831,2958
17.2809,2849
17.3787,2988
17.4765,2871
17.5743,2859
17.6721,2841
17.7699,3001
17.8677,2871
17.9655,2775
18.0633,2741
18.1611,2860
18.2589,2844
18.3567,2715
18.4545,2833
18.5523,2832
18.6501,2791
18.7479,2722
18.8457,2910
18.9435,2818
19.0413,2678
19.1391,2793
19.2369,2785
19.3347,2773
19.4325,2832
19.5303,2807
19.6281,2801
19.7259,2757
19.8237,2750
19.9215,2785
20.0193,2925
20.1171,3040
20.2149,3082
20.3127,3113
20.4105,2976
20.5083,2928
20.6061,2920
20.7039,2797
20.8017,2775
20.8995,2821
20.9973,2741
21.0951,2645
21.1929,2790
21.2907,2640
21.3884,2581
21.4862,2623
21.584,2627
21.6818,2627
21.7796,2579
21.8774,2695
21.9752,2626
22.073,2673
22.1708,2839
22.2686,2907
22.3664,2944
22.4642,3168
22.562,3190
22.6598,3373
22.7576,3345
22.8554,3376
22.9532,3368
23.051,3347
23.1488,3154
23.2466,3171
23.3444,3160
23.4422,3067
23.54,3056
23.6378,3081
23.7356,3187
23.8334,3315
23.9312,3312
24.029,3030
24.1268,3121
24.2246,3068
24.3224,3004
24.4202,2971
24.518,3003
24.6158,2953
24.7136,2931
24.8114,2899
24.9092,2895
25.007,2948
25.1048,2916
25.2026,2977
25.3004,2983
25.3982,2936
25.496,2895
25.5938,2916
25.6916,3079
25.7894,2930
25.8872,3017
25.985,2992
26.0828,2917
26.1805,2895
26.2783,2945
26.3761,2996
26.4739,2947
26.5717,3097
26.6695,3132
26.7673,3140
26.8651,3073
26.9629,3222
27.0607,3301
27.1585,3359
27.2563,3352
27.3541,3500
27.4519,3558
27.5497,3664
27.6475,3971
27.7453,4037
27.8431,4291
27.9409,4551
28.0387,4902
28.1365,5418
28.2343,6461
28.3321,7919
28.4299,9992
28.5277,13917
28.6255,16132
28.7233,12667
28.8211,9624
28.9189,7894
29.0167,7085
29.1145,6395
29.2123,6000
29.3101,5945
29.4079,6175
29.5057,5231
29.6035,4779
29.7013,4666
29.7991,4502
29.8969,4475
29.9947,4599

File: ENVT4461 S-13 Heated-400.csv
"Angle","Counts"
3.00243,25343
3.10023,22655
3.19803,20553
3.29583,18706
3.39363,17115
3.49142,16089
3.58922,14772
3.68702,13593
3.78482,12535
3.88261,11491
3.98041,10960
4.07821,10150
4.17601,9635
4.27381,9054
4.3716,8659
4.4694,8274
4.5672,7795
4.665,7316
4.7628,7136
4.86059,6876
4.95839,6592
5.05619,6390
5.15399,6295
5.25179,6153
5.34958,6154
5.44738,6102
5.54518,5870
5.64298,5962
5.74078,5958
5.83857,5786
5.93637,5933
6.03417,5736
6.13197,5815
6.22977,6011
6.32756,6099
6.42536,6049
6.52316,5936
6.62096,6164
6.71876,6222
6.81655,6256
6.91435,6149
7.01215,6244
7.10995,6213
7.20775,6277
7.30554,6383
7.40334,6365
7.50114,6481
7.59894,6310
7.69674,6600
7.79453,6509
7.89233,6449
7.99013,6447
8.08793,6587
8.18573,6561
8.28352,6606
8.38132,6811
8.47912,6645
8.57692,6583
8.67471,6702
8.77251,6621
8.87031,6689
8.96811,6731
9.06591,6712
9.1637,6633
9.2615,6827
9.3593,7139
9.4571,7113
9.5549,7181
9.65269,7425
9.75049,7567
9.84829,7926
9.94609,7650
10.0439,7071
10.1417,6770
10.2395,6618
10.3373,6547
10.4351,6287
10.5329,6421
10.6307,6467
10.7285,6262
10.8263,6142
10.9241,6036
11.0219,6045
11.1197,6022
11.2175,5987
11.3153,6013
11.4131,5905
11.5109,5980
11.6087,5817
11.7065,5981
11.8042,5990
11.902,5884
11.9998,5901
12.0976,6012
12.1954,5972
12.2932,5991
12.391,6183
12.4888,6270
12.5866,6324
12.6844,6517
12.7822,6453
12.88,6669
12.9778,6871
13.0756,7296
13.1734,7786
13.2712,8401
13.369,9168
13.4668,10635
13.5646,12341
13.6624,15632
13.7602,20215
13.858,25277
13.9558,29078
14.0536,24241
14.1514,14626
14.2492,9827
14.347,7689
14.4448,6220
14.5426,5497
14.6404,4969
14.7382,4529
14.836,4405
14.9338,4086
15.0316,3941
15.1294,3906
15.2272,3644
15.325,3538
15.4228,3423
15.5206,3307
15.6184,3314
15.7162,3080
15.814,3208
15.9118,3127
16.0096,3125
16.1074,3164
16.2052,2969
16.303,2962
16.4008,2904
16.4986,2928
16.5963,2897
16.6941,2753
16.7919,2750
16.8897,2853
16.9875,2691
17.0853,2809
17.1831,2692
17.2809,2683
17.3787,2631
17.4765,2650
17.5743,2640
17.6721,2554
17.7699,2702
17.8677,2601
17.9655,2551
18.0633,2624
18.1611,2555
18.2589,2558
18.3567,2568
18.4545,2556
18.5523,2563
18.6501,2554
18.7479,2562
18.8457,2482
18.9435,2556
19.0413,2480
19.1391,2424
19.2369,2472
19.3347,2537
19.4325,2615
19.5303,2522
19.6281,2538
19.7259,2612
19.8237,2599
19.9215,2614
20.0193,2780
20.1171,2829
20.2149,2797
20.3127,2965
20.4105,2772
20.5083,2643
20.6061,2581
20.7039,2612
20.8017,2426
20.8995,2502
20.9973,2557
21.0951,2515
21.1929,2524
21.2907,2390
21.3884,2545
21.4862,2445
21.584,2498
21.6818,2497
21.7796,2495
21.8774,2458
21.9752,2403
22.073,2475
22.1708,2591
22.2686,2645
22.3664,2758
22.4642,2881
22.562,3133
22.6598,3223
22.7576,3459
22.8554,3286
22.9532,3212
23.051,3295
23.1488,3181
23.2466,3187
23.3444,3110
23.4422,3205
23.54,3065
23.6378,3055
23.7356,3126
23.8334,3253
23.9312,3318
24.029,2978
24.1268,3014
24.2246,3012
24.3224,3017
24.4202,3004
24.518,3001
24.6158,2848
24.7136,2920
24.8114,3006
24.9092,3064
25.007,3020
25.1048,2982
25.2026,3141
25.3004,2964
25.3982,2910
25.496,2978
25.5938,2917
25.6916,2890
25.7894,2927
25.8872,3035
25.985,2941
26.0828,2883
26.1805,2934
26.2783,2974
26.3761,2955
26.4739,2964
26.5717,3010
26.6695,3056
26.7673,3070
26.8651,3007
26.9629,3020
27.0607,3276
27.1585,3235
27.2563,3332
27.3541,3392
27.4519,3407
27.5497,3768
27.6475,3746
27.7453,4032
27.8431,4209
27.9409,4495
28.0387,5107
28.1365,5878
28.2343,7010
28.3321,8704
28.4299,12321
28.5277,18275
28.6255,21923
28.7233,17012
28.8211,12229
28.9189,9406
29.0167,8215
29.1145,7359
29.2123,6570
29.3101,6216
29.4079,5610
29.5057,5450
29.6035,5164
29.7013,5025
29.7991,4822
29.8969,4726
29.9947,4610