Folder: Ashfield-REE/clay-plate-XRD-S2-2022 (part 2)

File: ENVT4461 S-13 Heated-550.csv
"Angle","Counts"
3.00243,24882
3.10023,22316
3.19803,20636
3.29583,18552
3.39363,17068
3.49142,15876
3.58922,14722
3.68702,13451
3.78482,12568
3.88261,11688
3.98041,10873
4.07821,10231
4.17601,9681
4.27381,9102
4.3716,8549
4.4694,8218
4.5672,7735
4.665,7441
4.7628,7050
4.86059,6606
4.95839,6502
5.05619,6302
5.15399,6145
5.25179,6062
5.34958,6027
5.44738,5752
5.54518,5762
5.64298,5625
5.74078,5620
5.83857,5533
5.93637,5629
6.03417,5674
6.13197,5599
6.22977,5706
6.32756,5826
6.42536,5741
6.52316,5861
6.62096,5955
6.71876,5941
6.81655,5993
6.91435,5901
7.01215,6077
7.10995,6135
7.20775,6112
7.30554,6198
7.40334,6118
7.50114,6404
7.59894,6249
7.69674,6371
7.79453,6457
7.89233,6303
7.99013,6477
8.08793,6358
8.18573,6634
8.28352,6762
8.38132,6627
8.47912,6818
8.57692,6655
8.67471,6888
8.77251,6763
8.87031,6944
8.96811,6801
9.06591,6997
9.1637,7216
9.2615,7213
9.3593,7448
9.4571,7590
9.5549,7725
9.65269,8184
9.75049,8644
9.84829,8729
9.94609,8443
10.0439,7600
10.1417,7306
10.2395,7024
10.3373,6862
10.4351,6647
10.5329,6397
10.6307,6320
10.7285,5893
10.8263,5649
10.9241,5633
11.0219,5340
11.1197,5273
11.2175,4935
11.3153,4842
11.4131,4748
11.5109,4489
11.6087,4372
11.7065,4311
11.8042,4140
11.902,4052
11.9998,3908
12.0976,3884
12.1954,3784
12.2932,3634
12.391,3677
12.4888,3561
12.5866,3536
12.6844,3361
12.7822,3428
12.88,3480
12.9778,3422
13.0756,3269
13.1734,3120
13.2712,3267
13.369,3274
13.4668,3234
13.5646,3164
13.6624,3130
13.7602,3145
13.858,3069
13.9558,3049
14.0536,3017
14.1514,3165
14.2492,3046
14.347,3066
14.4448,3011
14.5426,3076
14.6404,3017
14.7382,3047
14.836,3078
14.9338,3097
15.0316,2943
15.1294,2962
15.2272,3029
15.325,2976
15.4228,2966
15.5206,2929
15.6184,2941
15.7162,2982
15.814,2996
15.9118,2839
16.0096,2910
16.1074,2909
16.2052,2791
16.303,2929
16.4008,2933
16.4986,2984
16.5963,3023
16.6941,2870
16.7919,2900
16.8897,2901
16.9875,2895
17.0853,2801
17.1831,2876
17.2809,2875
17.3787,2907
17.4765,3029
17.5743,2948
17.6721,2887
17.7699,2974
17.8677,3025
17.9655,2871
18.0633,3000
18.1611,2982
18.2589,2900
18.3567,2902
18.4545,2982
18.5523,2950
18.6501,2976
18.7479,2972
18.8457,2908
18.9435,3041
19.0413,3022
19.1391,3052
19.2369,3106
19.3347,3019
19.4325,3126
19.5303,3057
19.6281,3150
19.7259,3165
19.8237,3144
19.9215,3490
20.0193,3489
20.1171,3535
20.2149,3482
20.3127,3523
20.4105,3256
20.5083,3314
20.6061,3240
20.7039,3151
20.8017,3145
20.8995,3150
20.9973,3147
21.0951,3130
21.1929,3120
21.2907,3139
21.3884,3114
21.4862,3218
21.584,3154
21.6818,3059
21.7796,3077
21.8774,3097
21.9752,3274
22.073,3156
22.1708,3083
22.2686,3251
22.3664,3276
22.4642,3427
22.562,3460
22.6598,3549
22.7576,3566
22.8554,3575
22.9532,3339
23.051,3503
23.1488,3453
23.2466,3393
23.3444,3463
23.4422,3491
23.54,3458
23.6378,3468
23.7356,3518
23.8334,3731
23.9312,3652
24.029,3375
24.1268,3438
24.2246,3493
24.3224,3287
24.4202,3378
24.518,3429
24.6158,3341
24.7136,3434
24.8114,3351
24.9092,3473
25.007,3545
25.1048,3520
25.2026,3509
25.3004,3545
25.3982,3414
25.496,3495
25.5938,3421
25.6916,3432
25.7894,3366
25.8872,3496
25.985,3316
26.0828,3368
26.1805,3343
26.2783,3316
26.3761,3271
26.4739,3203
26.5717,3289
26.6695,3273
26.7673,3345
26.8651,3341
26.9629,3302
27.0607,3305
27.1585,3361
27.2563,3345
27.3541,3416
27.4519,3431
27.5497,3445
27.6475,3287
27.7453,3447
27.8431,3347
27.9409,3282
28.0387,3357
28.1365,3246
28.2343,3357
28.3321,3397
28.4299,3341
28.5277,3437
28.6255,3462
28.7233,3408
28.8211,3542
28.9189,3571
29.0167,3842
29.1145,3945
29.2123,3854
29.3101,3574
29.4079,3677
29.5057,3747
29.6035,3615
29.7013,3774
29.7991,3781
29.8969,3960
29.9947,4039

File: ENVT4461 S-13 Mg EY.csv
"Angle","Counts"
3.00243,25220
3.10023,23110
3.19803,21028
3.29583,19642
3.39363,18010
3.49142,16721
3.58922,15622
3.68702,14170
3.78482,13594
3.88261,12673
3.98041,11740
4.07821,11311
4.17601,10641
4.27381,9952
4.3716,9601
4.4694,9111
4.5672,8786
4.665,8571
4.7628,8225
4.86059,8073
4.95839,7776
5.05619,7805
5.15399,7674
5.25179,7510
5.34958,7475
5.44738,7606
5.54518,7406
5.64298,7379
5.74078,7375
5.83857,7549
5.93637,7596
6.03417,7613
6.13197,7574
6.22977,7693
6.32756,7577
6.42536,7742
6.52316,7791
6.62096,7788
6.71876,7775
6.81655,7478
6.91435,7544
7.01215,7567
7.10995,7411
7.20775,7240
7.30554,7219
7.40334,7014
7.50114,6972
7.59894,6940
7.69674,6890
7.79453,6670
7.89233,6607
7.99013,6589
8.08793,6478
8.18573,6400
8.28352,6343
8.38132,6215
8.47912,5995
8.57692,5965
8.67471,5946
8.77251,6096
8.87031,5799
8.96811,5734
9.06591,5871
9.1637,5898
9.2615,5895
9.3593,5849
9.4571,5953
9.5549,5961
9.65269,6085
9.75049,6092
9.84829,6344
9.94609,6320
10.0439,5817
10.1417,5763
10.2395,5657
10.3373,5382
10.4351,5376
10.5329,5290
10.6307,5397
10.7285,5111
10.8263,5099
10.9241,5145
11.0219,5152
11.1197,5139
11.2175,5180
11.3153,5179
11.4131,5013
11.5109,5119
11.6087,5175
11.7065,5111
11.8042,5120
11.902,5151
11.9998,5366
12.0976,5307
12.1954,5556
12.2932,5508
12.391,5567
12.4888,5808
12.5866,5846
12.6844,5930
12.7822,6023
12.88,6142
12.9778,6414
13.0756,6725
13.1734,7061
13.2712,7649
13.369,8399
13.4668,9651
13.5646,11083
13.6624,13802
13.7602,17642
13.858,22301
13.9558,25802
14.0536,22280
14.1514,13479
14.2492,9067
14.347,7180
14.4448,5824
14.5426,5119
14.6404,4715
14.7382,4241
14.836,4092
14.9338,4012
15.0316,3606
15.1294,3490
15.2272,3535
15.325,3385
15.4228,3221
15.5206,3223
15.6184,3134
15.7162,3070
15.814,3035
15.9118,3045
16.0096,2976
16.1074,2986
16.2052,2949
16.303,2933
16.4008,2831
16.4986,2722
16.5963,2757
16.6941,2734
16.7919,2800
16.8897,2735
16.9875,2714
17.0853,2597
17.1831,2732
17.2809,2617
17.3787,2600
17.4765,2659
17.5743,2581
17.6721,2583
17.7699,2581
17.8677,2518
17.9655,2546
18.0633,2468
18.1611,2509
18.2589,2566
18.3567,2629
18.4545,2537
18.5523,2469
18.6501,2395
18.7479,2489
18.8457,2451
18.9435,2510
19.0413,2512
19.1391,2423
19.2369,2522
19.3347,2460
19.4325,2551
19.5303,2510
19.6281,2479
19.7259,2497
19.8237,2486
19.9215,2599
20.0193,2641
20.1171,2668
20.2149,2880
20.3127,2798
20.4105,2715
20.5083,2646
20.6061,2587
20.7039,2605
20.8017,2673
20.8995,2707
20.9973,2609
21.0951,2418
21.1929,2476
21.2907,2402
21.3884,2460
21.4862,2446
21.584,2421
21.6818,2438
21.7796,2473
21.8774,2488
21.9752,2371
22.073,2464
22.1708,2524
22.2686,2621
22.3664,2666
22.4642,2851
22.562,3117
22.6598,3320
22.7576,3439
22.8554,3549
22.9532,3267
23.051,3267
23.1488,3252
23.2466,3194
23.3444,3196
23.4422,3202
23.54,3137
23.6378,3080
23.7356,3141
23.8334,3353
23.9312,3393
24.029,3216
24.1268,3238
24.2246,3228
24.3224,3309
24.4202,3287
24.518,3248
24.6158,3266
24.7136,3099
24.8114,3121
24.9092,3101
25.007,3081
25.1048,3057
25.2026,3004
25.3004,2993
25.3982,2991
25.496,2913
25.5938,2964
25.6916,2957
25.7894,3020
25.8872,2923
25.985,3005
26.0828,2984
26.1805,2860
26.2783,2953
26.3761,2957
26.4739,2998
26.5717,2942
26.6695,3033
26.7673,2998
26.8651,3082
26.9629,3154
27.0607,3218
27.1585,3200
27.2563,3215
27.3541,3292
27.4519,3425
27.5497,3590
27.6475,3740
27.7453,3914
27.8431,4186
27.9409,4512
28.0387,5109
28.1365,5755
28.2343,6630
28.3321,8311
28.4299,11289
28.5277,16746
28.6255,20641
28.7233,15838
28.8211,11120
28.9189,8662
29.0167,7297
29.1145,6719
29.2123,5947
29.3101,5345
29.4079,5048
29.5057,4894
29.6035,4707
29.7013,4312
29.7991,4185
29.8969,4272
29.9947,4258

File: ENVT4461 S-13 Mg+Gly EY.csv
"Angle","Counts"
3.00243,26249
3.10023,23483
3.19803,21746
3.29583,19486
3.39363,18319
3.49142,16973
3.58922,15874
3.68702,14716
3.78482,13460
3.88261,12790
3.98041,11907
4.07821,11582
4.17601,10778
4.27381,10649
4.3716,9720
4.4694,9428
4.5672,9027
4.665,8808
4.7628,8855
4.86059,8426
4.95839,8258
5.05619,8509
5.15399,8134
5.25179,7997
5.34958,7932
5.44738,7885
5.54518,7856
5.64298,7890
5.74078,7967
5.83857,7951
5.93637,8181
6.03417,8133
6.13197,8183
6.22977,8254
6.32756,8312
6.42536,8351
6.52316,8270
6.62096,8100
6.71876,8315
6.81655,8291
6.91435,8032
7.01215,8171
7.10995,8079
7.20775,7844
7.30554,7781
7.40334,7682
7.50114,7723
7.59894,7545
7.69674,7264
7.79453,7359
7.89233,6997
7.99013,7066
8.08793,6786
8.18573,6886
8.28352,6739
8.38132,6605
8.47912,6414
8.57692,6599
8.67471,6524
8.77251,6233
8.87031,6424
8.96811,6276
9.06591,6352
9.1637,6201
9.2615,6282
9.3593,6399
9.4571,6335
9.5549,6619
9.65269,6767
9.75049,6923
9.84829,7270
9.94609,6909
10.0439,6517
10.1417,6236
10.2395,6114
10.3373,5870
10.4351,5982
10.5329,5837
10.6307,5827
10.7285,5675
10.8263,5678
10.9241,5586
11.0219,5588
11.1197,5709
11.2175,5550
11.3153,5546
11.4131,5392
11.5109,5746
11.6087,5492
11.7065,5686
11.8042,5578
11.902,5758
11.9998,5814
12.0976,5903
12.1954,5922
12.2932,5991
12.391,6011
12.4888,6153
12.5866,6523
12.6844,6528
12.7822,6626
12.88,6773
12.9778,7045
13.0756,7596
13.1734,7852
13.2712,8813
13.369,9318
13.4668,10723
13.5646,12654
13.6624,15764
13.7602,20114
13.858,25850
13.9558,29768
14.0536,25118
14.1514,15086
14.2492,10150
14.347,7758
14.4448,6369
14.5426,5550
14.6404,5074
14.7382,4693
14.836,4442
14.9338,4255
15.0316,4110
15.1294,3885
15.2272,3720
15.325,3587
15.4228,3525
15.5206,3395
15.6184,3345
15.7162,3178
15.814,3183
15.9118,3210
16.0096,3115
16.1074,3087
16.2052,3098
16.303,2915
16.4008,2853
16.4986,2910
16.5963,2759
16.6941,2879
16.7919,2857
16.8897,2739
16.9875,2807
17.0853,2852
17.1831,2736
17.2809,2763
17.3787,2748
17.4765,2778
17.5743,2658
17.6721,2661
17.7699,2613
17.8677,2711
17.9655,2594
18.0633,2656
18.1611,2561
18.2589,2540
18.3567,2544
18.4545,2626
18.5523,2555
18.6501,2634
18.7479,2645
18.8457,2547
18.9435,2568
19.0413,2539
19.1391,2605
19.2369,2671
19.3347,2546
19.4325,2436
19.5303,2554
19.6281,2476
19.7259,2614
19.8237,2587
19.9215,2687
20.0193,2780
20.1171,2835
20.2149,2926
20.3127,3006
20.4105,2868
20.5083,2766
20.6061,2808
20.7039,2682
20.8017,2676
20.8995,2896
20.9973,2777
21.0951,2630
21.1929,2622
21.2907,2497
21.3884,2611
21.4862,2460
21.584,2585
21.6818,2664
21.7796,2529
21.8774,2575
21.9752,2564
22.073,2569
22.1708,2624
22.2686,2654
22.3664,2761
22.4642,2873
22.562,3075
22.6598,3301
22.7576,3511
22.8554,3578
22.9532,3349
23.051,3353
23.1488,3368
23.2466,3384
23.3444,3181
23.4422,3125
23.54,3291
23.6378,3224
23.7356,3245
23.8334,3498
23.9312,3408
24.029,3240
24.1268,3373
24.2246,3355
24.3224,3421
24.4202,3322
24.518,3425
24.6158,3337
24.7136,3190
24.8114,3135
24.9092,3128
25.007,3255
25.1048,3218
25.2026,3171
25.3004,3084
25.3982,3011
25.496,3017
25.5938,3026
25.6916,3024
25.7894,3237
25.8872,3146
25.985,3008
26.0828,3120
26.1805,2998
26.2783,3035
26.3761,3020
26.4739,3010
26.5717,3100
26.6695,3188
26.7673,3154
26.8651,3205
26.9629,3272
27.0607,3308
27.1585,3359
27.2563,3489
27.3541,3439
27.4519,3542
27.5497,3774
27.6475,3848
27.7453,4280
27.8431,4538
27.9409,4948
28.0387,5490
28.1365,6268
28.2343,7089
28.3321,9269
28.4299,12774
28.5277,18539
28.6255,22811
28.7233,17784
28.8211,12165
28.9189,9501
29.0167,8153
29.1145,7221
29.2123,6453
29.3101,5997
29.4079,5501
29.5057,5143
29.6035,4872
29.7013,4807
29.7991,4678
29.8969,4536
29.9947,4454

File: ENVT4461 S-14 Mg+Gly.csv
"Angle","Counts"
3.00243,25545
3.10023,23132
3.19803,21147
3.29583,20077
3.39363,18599
3.49142,17130
3.58922,16109
3.68702,15291
3.78482,14029
3.88261,13255
3.98041,12440
4.07821,12107
4.17601,11272
4.27381,10734
4.3716,10313
4.4694,9916
4.5672,9290
4.665,9251
4.7628,8944
4.86059,8681
4.95839,8558
5.05619,8257
5.15399,8015
5.25179,7846
5.34958,7853
5.44738,7740
5.54518,7429
5.64298,7423
5.74078,7339
5.83857,7382
5.93637,7180
6.03417,7354
6.13197,7187
6.22977,7117
6.32756,7022
6.42536,7137
6.52316,7078
6.62096,6928
6.71876,6888
6.81655,6702
6.91435,6823
7.01215,6733
7.10995,6642
7.20775,6588
7.30554,6726
7.40334,6449
7.50114,6468
7.59894,6439
7.69674,6473
7.79453,6418
7.89233,6318
7.99013,6477
8.08793,6362
8.18573,6317
8.28352,6228
8.38132,6184
8.47912,6219
8.57692,6318
8.67471,6258
8.77251,6298
8.87031,6264
8.96811,6314
9.06591,6245
9.1637,6286
9.2615,6186
9.3593,6362
9.4571,6596
9.5549,6653
9.65269,6838
9.75049,7060
9.84829,7089
9.94609,7158
10.0439,6994
10.1417,6696
10.2395,6572
10.3373,6547
10.4351,6376
10.5329,6335
10.6307,6208
10.7285,6286
10.8263,6178
10.9241,6228
11.0219,6045
11.1197,6172
11.2175,6039
11.3153,5961
11.4131,6203
11.5109,5922
11.6087,6092
11.7065,5934
11.8042,5954
11.902,6146
11.9998,6058
12.0976,6085
12.1954,6007
12.2932,6133
12.391,6155
12.4888,6003
12.5866,6194
12.6844,6195
12.7822,6466
12.88,6540
12.9778,6594
13.0756,6807
13.1734,6967
13.2712,7166
13.369,7780
13.4668,8475
13.5646,9503
13.6624,11002
13.7602,13206
13.858,16481
13.9558,19574
14.0536,19860
14.1514,13619
14.2492,9368
14.347,7018
14.4448,5986
14.5426,5296
14.6404,4839
14.7382,4473
14.836,4303
14.9338,4091
15.0316,3963
15.1294,3708
15.2272,3521
15.325,3563
15.4228,3337
15.5206,3345
15.6184,3390
15.7162,3215
15.814,3220
15.9118,3105
16.0096,3033
16.1074,2978
16.2052,3010
16.303,3016
16.4008,2969
16.4986,2842
16.5963,2963
16.6941,2929
16.7919,2811
16.8897,2833
16.9875,2849
17.0853,2789
17.1831,2812
17.2809,2723
17.3787,2742
17.4765,2777
17.5743,2713
17.6721,2714
17.7699,2694
17.8677,2700
17.9655,2628
18.0633,2665
18.1611,2740
18.2589,2699
18.3567,2665
18.4545,2707
18.5523,2706
18.6501,2499
18.7479,2575
18.8457,2617
18.9435,2593
19.0413,2615
19.1391,2638
19.2369,2608
19.3347,2644
19.4325,2590
19.5303,2670
19.6281,2712
19.7259,2752
19.8237,2671
19.9215,2745
20.0193,2787
20.1171,2864
20.2149,2824
20.3127,2996
20.4105,2809
20.5083,2842
20.6061,2801
20.7039,2707
20.8017,2687
20.8995,2859
20.9973,2806
21.0951,2676
21.1929,2717
21.2907,2795
21.3884,2654
21.4862,2674
21.584,2756
21.6818,2702
21.7796,2678
21.8774,2864
21.9752,2800
22.073,2793
22.1708,2864
22.2686,2916
22.3664,3104
22.4642,3281
22.562,3385
22.6598,3639
22.7576,4063
22.8554,4069
22.9532,3834
23.051,3728
23.1488,3802
23.2466,3773
23.3444,3777
23.4422,3752
23.54,3700
23.6378,3613
23.7356,3674
23.8334,3691
23.9312,3821
24.029,3619
24.1268,3637
24.2246,3583
24.3224,3722
24.4202,3579
24.518,3595
24.6158,3708
24.7136,3588
24.8114,3477
24.9092,3577
25.007,3499
25.1048,3392
25.2026,3510
25.3004,3424
25.3982,3525
25.496,3547
25.5938,3506
25.6916,3523
25.7894,3438
25.8872,3385
25.985,3508
26.0828,3491
26.1805,3415
26.2783,3332
26.3761,3594
26.4739,3418
26.5717,3543
26.6695,3565
26.7673,3560
26.8651,3610
26.9629,3613
27.0607,3590
27.1585,3818
27.2563,3617
27.3541,3911
27.4519,3833
27.5497,3964
27.6475,4037
27.7453,4348
27.8431,4366
27.9409,4701
28.0387,5008
28.1365,5408
28.2343,6145
28.3321,6983
28.4299,8818
28.5277,11948
28.6255,16075
28.7233,15175
28.8211,11121
28.9189,8763
29.0167,7695
29.1145,6812
29.2123,6417
29.3101,5784
29.4079,5505
29.5057,5295
29.6035,5078
29.7013,4889
29.7991,4773
29.8969,4531
29.9947,4485

File: ENVT4461 S-14 Mg.csv
"Angle","Counts"
3.00243,25955
3.10023,23247
3.19803,21630
3.29583,19877
3.39363,18228
3.49142,17316
3.58922,16267
3.68702,15202
3.78482,14076
3.88261,13177
3.98041,12560
4.07821,11880
4.17601,11369
4.27381,10813
4.3716,10241
4.4694,9732
4.5672,9308
4.665,9048
4.7628,8817
4.86059,8546
4.95839,8162
5.05619,7863
5.15399,7928
5.25179,7772
5.34958,7728
5.44738,7569
5.54518,7348
5.64298,7317
5.74078,7131
5.83857,7154
5.93637,7079
6.03417,7203
6.13197,7216
6.22977,7125
6.32756,7039
6.42536,7074
6.52316,7014
6.62096,6988
6.71876,6905
6.81655,6865
6.91435,6868
7.01215,6673
7.10995,6892
7.20775,6708
7.30554,6582
7.40334,6692
7.50114,6492
7.59894,6514
7.69674,6334
7.79453,6418
7.89233,6379
7.99013,6473
8.08793,6145
8.18573,6252
8.28352,6147
8.38132,6228
8.47912,6437
8.57692,6131
8.67471,6165
8.77251,6091
8.87031,6045
8.96811,6022
9.06591,6004
9.1637,6086
9.2615,6088
9.3593,5899
9.4571,6023
9.5549,6081
9.65269,6245
9.75049,6424
9.84829,6569
9.94609,6423
10.0439,6376
10.1417,6032
10.2395,5933
10.3373,5933
10.4351,5953
10.5329,5819
10.6307,5725
10.7285,5756
10.8263,5678
10.9241,5606
11.0219,5600
11.1197,5552
11.2175,5688
11.3153,5513
11.4131,5514
11.5109,5462
11.6087,5446
11.7065,5550
11.8042,5563
11.902,5510
11.9998,5716
12.0976,5437
12.1954,5497
12.2932,5539
12.391,5603
12.4888,5695
12.5866,5807
12.6844,5753
12.7822,5935
12.88,5972
12.9778,6064
13.0756,6173
13.1734,6501
13.2712,6656
13.369,7175
13.4668,7595
13.5646,8533
13.6624,9532
13.7602,11382
13.858,14019
13.9558,16013
14.0536,16308
14.1514,11792
14.2492,7940
14.347,6365
14.4448,5372
14.5426,4628
14.6404,4317
14.7382,4155
14.836,3776
14.9338,3756
15.0316,3568
15.1294,3554
15.2272,3309
15.325,3150
15.4228,3165
15.5206,3061
15.6184,3020
15.7162,3031
15.814,3009
15.9118,2881
16.0096,2908
16.1074,2843
16.2052,2831
16.303,2791
16.4008,2855
16.4986,2695
16.5963,2632
16.6941,2667
16.7919,2627
16.8897,2764
16.9875,2603
17.0853,2497
17.1831,2494
17.2809,2494
17.3787,2531
17.4765,2438
17.5743,2452
17.6721,2408
17.7699,2531
17.8677,2409
17.9655,2346
18.0633,2315
18.1611,2429
18.2589,2343
18.3567,2311
18.4545,2368
18.5523,2365
18.6501,2350
18.7479,2438
18.8457,2319
18.9435,2244
19.0413,2283
19.1391,2317
19.2369,2358
19.3347,2348
19.4325,2371
19.5303,2332
19.6281,2409
19.7259,2283
19.8237,2389
19.9215,2393
20.0193,2406
20.1171,2420
20.2149,2468
20.3127,2592
20.4105,2507
20.5083,2459
20.6061,2417
20.7039,2398
20.8017,2292
20.8995,2419
20.9973,2415
21.0951,2317
21.1929,2312
21.2907,2342
21.3884,2369
21.4862,2339
21.584,2370
21.6818,2305
21.7796,2224
21.8774,2202
21.9752,2283
22.073,2329
22.1708,2328
22.2686,2244
22.3664,2546
22.4642,2647
22.562,2836
22.6598,3110
22.7576,3387
22.8554,3358
22.9532,3288
23.051,3211
23.1488,3050
23.2466,3040
23.3444,3124
23.4422,2888
23.54,2975
23.6378,2869
23.7356,2887
23.8334,3028
23.9312,3129
24.029,2879
24.1268,3014
24.2246,2905
24.3224,2833
24.4202,2802
24.518,2839
24.6158,2845
24.7136,2969
24.8114,2801
24.9092,2868
25.007,2752
25.1048,2819
25.2026,2851
25.3004,2891
25.3982,2852
25.496,2820
25.5938,2857
25.6916,2868
25.7894,2864
25.8872,2973
25.985,2822
26.0828,2900
26.1805,2706
26.2783,2895
26.3761,2851
26.4739,2896
26.5717,2889
26.6695,2895
26.7673,2813
26.8651,2875
26.9629,2951
27.0607,3047
27.1585,3071
27.2563,3133
27.3541,3114
27.4519,3168
27.5497,3359
27.6475,3380
27.7453,3509
27.8431,3631
27.9409,3851
28.0387,4046
28.1365,4473
28.2343,4814
28.3321,5712
28.4299,6957
28.5277,9321
28.6255,12532
28.7233,12731
28.8211,9335
28.9189,7134
29.0167,6263
29.1145,5819
29.2123,5298
29.3101,4784
29.4079,4693
29.5057,4405
29.6035,4322
29.7013,4194
29.7991,4139
29.8969,4078
29.9947,4081

File: ENVT4461 S-15 Heated-400.csv
"Angle","Counts"
3.00243,26794
3.10023,24554
3.19803,23353
3.29583,21630
3.39363,20279
3.49142,19194
3.58922,18234
3.68702,17237
3.78482,16410
3.88261,15985
3.98041,14922
4.07821,14551
4.17601,13979
4.27381,13569
4.3716,13179
4.4694,12673
4.5672,12542
4.665,12275
4.7628,11981
4.86059,11933
4.95839,11534
5.05619,11649
5.15399,11351
5.25179,11125
5.34958,11238
5.44738,10840
5.54518,10918
5.64298,10852
5.74078,10821
5.83857,10798
5.93637,10574
6.03417,10601
6.13197,10747
6.22977,10669
6.32756,10788
6.42536,10598
6.52316,10733
6.62096,10543
6.71876,10629
6.81655,10648
6.91435,10709
7.01215,10538
7.10995,10445
7.20775,10417
7.30554,10393
7.40334,10449
7.50114,10324
7.59894,10470
7.69674,10419
7.79453,10400
7.89233,10207
7.99013,10379
8.08793,10309
8.18573,10216
8.28352,10253
8.38132,10375
8.47912,10455
8.57692,10230
8.67471,10280
8.77251,10144
8.87031,10318
8.96811,10361
9.06591,10520
9.1637,10359
9.2615,10509
9.3593,10443
9.4571,10571
9.5549,10578
9.65269,10737
9.75049,11184
9.84829,11242
9.94609,11477
10.0439,10832
10.1417,10683
10.2395,10383
10.3373,9928
10.4351,9719
10.5329,9904
10.6307,9620
10.7285,9426
10.8263,9080
10.9241,9139
11.0219,8738
11.1197,8923
11.2175,8876
11.3153,8690
11.4131,8531
11.5109,8443
11.6087,8294
11.7065,8181
11.8042,8314
11.902,8298
11.9998,8237
12.0976,8126
12.1954,8123
12.2932,8195
12.391,8075
12.4888,8267
12.5866,8434
12.6844,8455
12.7822,8642
12.88,8586
12.9778,8974
13.0756,9016
13.1734,9422
13.2712,10107
13.369,10876
13.4668,12118
13.5646,13701
13.6624,15975
13.7602,19545
13.858,24000
13.9558,28327
14.0536,29947
14.1514,23381
14.2492,14983
14.347,10905
14.4448,8600
14.5426,7173
14.6404,6299
14.7382,5745
14.836,5218
14.9338,4971
15.0316,4608
15.1294,4318
15.2272,4124
15.325,3956
15.4228,3874
15.5206,3632
15.6184,3650
15.7162,3543
15.814,3400
15.9118,3373
16.0096,3246
16.1074,3246
16.2052,3198
16.303,3173
16.4008,3126
16.4986,3184
16.5963,3025
16.6941,2997
16.7919,2885
16.8897,3019
16.9875,2875
17.0853,2901
17.1831,2815
17.2809,2828
17.3787,2749
17.4765,2749
17.5743,2753
17.6721,2729
17.7699,2676
17.8677,2639
17.9655,2802
18.0633,2673
18.1611,2655
18.2589,2622
18.3567,2686
18.4545,2532
18.5523,2716
18.6501,2540
18.7479,2607
18.8457,2643
18.9435,2605
19.0413,2584
19.1391,2597
19.2369,2607
19.3347,2516
19.4325,2602
19.5303,2500
19.6281,2480
19.7259,2488
19.8237,2543
19.9215,2631
20.0193,2605
20.1171,2722
20.2149,2777
20.3127,2875
20.4105,2780
20.5083,2802
20.6061,2541
20.7039,2636
20.8017,2604
20.8995,2498
20.9973,2581
21.0951,2434
21.1929,2511
21.2907,2490
21.3884,2434
21.4862,2456
21.584,2432
21.6818,2471
21.7796,2393
21.8774,2480
21.9752,2542
22.073,2450
22.1708,2497
22.2686,2532
22.3664,2615
22.4642,2749
22.562,2851
22.6598,3145
22.7576,3272
22.8554,3396
22.9532,3372
23.051,3292
23.1488,3123
23.2466,3100
23.3444,3158
23.4422,3159
23.54,3062
23.6378,3060
23.7356,3107
23.8334,3023
23.9312,3030
24.029,2986
24.1268,3029
24.2246,3041
24.3224,2933
24.4202,2881
24.518,2964
24.6158,2920
24.7136,2975
24.8114,2864
24.9092,2811
25.007,2872
25.1048,2829
25.2026,2853
25.3004,2892
25.3982,2869
25.496,2830
25.5938,2920
25.6916,2880
25.7894,2900
25.8872,3033
25.985,2948
26.0828,2983
26.1805,2901
26.2783,2936
26.3761,2940
26.4739,3061
26.5717,3034
26.6695,3068
26.7673,3132
26.8651,3210
26.9629,3164
27.0607,3351
27.1585,3262
27.2563,3460
27.3541,3551
27.4519,3588
27.5497,3749
27.6475,4008
27.7453,4240
27.8431,4426
27.9409,4626
28.0387,5257
28.1365,5698
28.2343,6718
28.3321,8385
28.4299,10331
28.5277,14445
28.6255,19843
28.7233,21510
28.8211,16729
28.9189,12730
29.0167,10425
29.1145,9254
29.2123,8052
29.3101,7454
29.4079,6998
29.5057,6506
29.6035,6145
29.7013,6058
29.7991,5603
29.8969,5576
29.9947,5491

File: ENVT4461 S-15 Heated-550.csv
"Angle","Counts"
3.00243,28209
3.10023,26408
3.19803,24148
3.29583,22229
3.39363,20977
3.49142,19491
3.58922,17990
3.68702,17118
3.78482,16070
3.88261,14846
3.98041,13948
4.07821,13618
4.17601,12762
4.27381,12004
4.3716,11218
4.4694,11068
4.5672,10427
4.665,10052
4.7628,9721
4.86059,9461
4.95839,9220
5.05619,9201
5.15399,8789
5.25179,8657
5.34958,8435
5.44738,8270
5.54518,8326
5.64298,8377
5.74078,8195
5.83857,8307
5.93637,8284
6.03417,8272
6.13197,8273
6.22977,8453
6.32756,8407
6.42536,8230
6.52316,8454
6.62096,8596
6.71876,8706
6.81655,8825
6.91435,8553
7.01215,8682
7.10995,8796
7.20775,8788
7.30554,8738
7.40334,8674
7.50114,8839
7.59894,8824
7.69674,8962
7.79453,8898
7.89233,8987
7.99013,9201
8.08793,9192
8.18573,9248
8.28352,9189
8.38132,9408
8.47912,9409
8.57692,9307
8.67471,9455
8.77251,9404
8.87031,9579
8.96811,9573
9.06591,9618
9.1637,9848
9.2615,9913
9.3593,9859
9.4571,9900
9.5549,10148
9.65269,10362
9.75049,10597
9.84829,10766
9.94609,10767
10.0439,10729
10.1417,10173
10.2395,9556
10.3373,9380
10.4351,8799
10.5329,8581
10.6307,8435
10.7285,7933
10.8263,7565
10.9241,7110
11.0219,6735
11.1197,6696
11.2175,6371
11.3153,5953
11.4131,5706
11.5109,5741
11.6087,5318
11.7065,5031
11.8042,4912
11.902,4656
11.9998,4457
12.0976,4258
12.1954,4121
12.2932,3955
12.391,3968
12.4888,3872
12.5866,3701
12.6844,3673
12.7822,3488
12.88,3525
12.9778,3379
13.0756,3390
13.1734,3340
13.2712,3291
13.369,3263
13.4668,3199
13.5646,3066
13.6624,3062
13.7602,3111
13.858,3169
13.9558,2990
14.0536,2973
14.1514,2956
14.2492,3082
14.347,2976
14.4448,2979
14.5426,3066
14.6404,2921
14.7382,2990
14.836,3001
14.9338,3036
15.0316,2964
15.1294,2968
15.2272,3017
15.325,2900
15.4228,2954
15.5206,2913
15.6184,3045
15.7162,2973
15.814,2913
15.9118,2979
16.0096,2955
16.1074,2892
16.2052,2935
16.303,2877
16.4008,2854
16.4986,2975
16.5963,2983
16.6941,2808
16.7919,2890
16.8897,2879
16.9875,2881
17.0853,2847
17.1831,2905
17.2809,2987
17.3787,2944
17.4765,2935
17.5743,2801
17.6721,2948
17.7699,2931
17.8677,2967
17.9655,2818
18.0633,2912
18.1611,2942
18.2589,2840
18.3567,2945
18.4545,2970
18.5523,2933
18.6501,2984
18.7479,3053
18.8457,2958
18.9435,2986
19.0413,3088
19.1391,3136
19.2369,3163
19.3347,3015
19.4325,3073
19.5303,3158
19.6281,3121
19.7259,3231
19.8237,3147
19.9215,3184
20.0193,3380
20.1171,3440
20.2149,3380
20.3127,3575
20.4105,3474
20.5083,3330
20.6061,3236
20.7039,3149
20.8017,3188
20.8995,3220
20.9973,3201
21.0951,3282
21.1929,3281
21.2907,3275
21.3884,3209
21.4862,3144
21.584,3194
21.6818,3052
21.7796,3124
21.8774,3119
21.9752,3235
22.073,3168
22.1708,3214
22.2686,3226
22.3664,3241
22.4642,3259
22.562,3424
22.6598,3489
22.7576,3534
22.8554,3611
22.9532,3605
23.051,3544
23.1488,3499
23.2466,3471
23.3444,3680
23.4422,3472
23.54,3509
23.6378,3573
23.7356,3390
23.8334,3546
23.9312,3683
24.029,3590
24.1268,3482
24.2246,3432
24.3224,3348
24.4202,3387
24.518,3301
24.6158,3364
24.7136,3445
24.8114,3398
24.9092,3408
25.007,3384
25.1048,3295
25.2026,3367
25.3004,3429
25.3982,3439
25.496,3469
25.5938,3401
25.6916,3387
25.7894,3432
25.8872,3386
25.985,3355
26.0828,3411
26.1805,3394
26.2783,3478
26.3761,3274
26.4739,3406
26.5717,3427
26.6695,3534
26.7673,3415
26.8651,3451
26.9629,3338
27.0607,3415
27.1585,3410
27.2563,3395
27.3541,3394
27.4519,3457
27.5497,3446
27.6475,3362
27.7453,3401
27.8431,3420
27.9409,3366
28.0387,3444
28.1365,3416
28.2343,3398
28.3321,3284
28.4299,3488
28.5277,3478
28.6255,3558
28.7233,3608
28.8211,3481
28.9189,3628
29.0167,3683
29.1145,3696
29.2123,3927
29.3101,3951
29.4079,3952
29.5057,3807
29.6035,3924
29.7013,3992
29.7991,3945
29.8969,4110
29.9947,4231