Folder: Ashfield-REE/clay-plate-XRD-S2-2022 (part 3)

File: ENVT4461 S-15 Mg+Gly.csv
"Angle","Counts"
3.00243,26615
3.10023,24178
3.19803,22677
3.29583,21306
3.39363,20233
3.49142,19111
3.58922,18387
3.68702,17847
3.78482,17064
3.88261,16177
3.98041,15843
4.07821,15302
4.17601,14737
4.27381,14651
4.3716,14374
4.4694,14211
4.5672,13980
4.665,13888
4.7628,13717
4.86059,13477
4.95839,13563
5.05619,13372
5.15399,13259
5.25179,13196
5.34958,13185
5.44738,12937
5.54518,12750
5.64298,12824
5.74078,12379
5.83857,12520
5.93637,12202
6.03417,11879
6.13197,11921
6.22977,11796
6.32756,11492
6.42536,11765
6.52316,11245
6.62096,11012
6.71876,11029
6.81655,10525
6.91435,10589
7.01215,10581
7.10995,10472
7.20775,10040
7.30554,9884
7.40334,9803
7.50114,9660
7.59894,9453
7.69674,9408
7.79453,9353
7.89233,9174
7.99013,9075
8.08793,9007
8.18573,8906
8.28352,8956
8.38132,8733
8.47912,8684
8.57692,8521
8.67471,8560
8.77251,8724
8.87031,8590
8.96811,8660
9.06591,8782
9.1637,8835
9.2615,8753
9.3593,8761
9.4571,8806
9.5549,9119
9.65269,9204
9.75049,9454
9.84829,9575
9.94609,9819
10.0439,9396
10.1417,9178
10.2395,8908
10.3373,8873
10.4351,8486
10.5329,8444
10.6307,8250
10.7285,8371
10.8263,8224
10.9241,8066
11.0219,7965
11.1197,7821
11.2175,8038
11.3153,7889
11.4131,7863
11.5109,7853
11.6087,7775
11.7065,7711
11.8042,7781
11.902,7587
11.9998,7650
12.0976,7523
12.1954,7729
12.2932,7914
12.391,7981
12.4888,7957
12.5866,7968
12.6844,8116
12.7822,8432
12.88,8499
12.9778,8694
13.0756,8991
13.1734,9615
13.2712,10022
13.369,10830
13.4668,11925
13.5646,13491
13.6624,15591
13.7602,18848
13.858,23407
13.9558,28072
14.0536,29226
14.1514,22929
14.2492,14930
14.347,10691
14.4448,8487
14.5426,7127
14.6404,6233
14.7382,5651
14.836,5182
14.9338,4874
15.0316,4625
15.1294,4458
15.2272,4251
15.325,4038
15.4228,3920
15.5206,3743
15.6184,3639
15.7162,3691
15.814,3410
15.9118,3331
16.0096,3364
16.1074,3264
16.2052,3344
16.303,3185
16.4008,3093
16.4986,3247
16.5963,3162
16.6941,3073
16.7919,3029
16.8897,2973
16.9875,2999
17.0853,3077
17.1831,2829
17.2809,2814
17.3787,2986
17.4765,2836
17.5743,2813
17.6721,2787
17.7699,2830
17.8677,2753
17.9655,2827
18.0633,2738
18.1611,2800
18.2589,2677
18.3567,2633
18.4545,2712
18.5523,2692
18.6501,2615
18.7479,2756
18.8457,2699
18.9435,2657
19.0413,2633
19.1391,2626
19.2369,2679
19.3347,2689
19.4325,2632
19.5303,2644
19.6281,2664
19.7259,2707
19.8237,2555
19.9215,2671
20.0193,2707
20.1171,2720
20.2149,2922
20.3127,2995
20.4105,2914
20.5083,2783
20.6061,2805
20.7039,2722
20.8017,2736
20.8995,2803
20.9973,2770
21.0951,2673
21.1929,2656
21.2907,2611
21.3884,2648
21.4862,2661
21.584,2603
21.6818,2650
21.7796,2591
21.8774,2537
21.9752,2672
22.073,2553
22.1708,2751
22.2686,2748
22.3664,2769
22.4642,3004
22.562,3075
22.6598,3331
22.7576,3470
22.8554,3650
22.9532,3479
23.051,3521
23.1488,3431
23.2466,3301
23.3444,3381
23.4422,3347
23.54,3311
23.6378,3219
23.7356,3269
23.8334,3297
23.9312,3253
24.029,3346
24.1268,3323
24.2246,3228
24.3224,3286
24.4202,3142
24.518,3304
24.6158,3261
24.7136,3253
24.8114,3111
24.9092,3160
25.007,3066
25.1048,3076
25.2026,3122
25.3004,3219
25.3982,3135
25.496,3166
25.5938,3171
25.6916,3141
25.7894,3166
25.8872,3300
25.985,3405
26.0828,3284
26.1805,3327
26.2783,3156
26.3761,3304
26.4739,3325
26.5717,3415
26.6695,3355
26.7673,3354
26.8651,3389
26.9629,3512
27.0607,3542
27.1585,3512
27.2563,3723
27.3541,3789
27.4519,3974
27.5497,4170
27.6475,4079
27.7453,4437
27.8431,4860
27.9409,5103
28.0387,5670
28.1365,6240
28.2343,7257
28.3321,8425
28.4299,10799
28.5277,14554
28.6255,19949
28.7233,21847
28.8211,16853
28.9189,12464
29.0167,10355
29.1145,9049
29.2123,7959
29.3101,7467
29.4079,6707
29.5057,6370
29.6035,5952
29.7013,5735
29.7991,5485
29.8969,5261
29.9947,5123

File: ENVT4461 S-15 Mg.csv
"Angle","Counts"
3.00243,25451
3.10023,23685
3.19803,21414
3.29583,20403
3.39363,19170
3.49142,17457
3.58922,16412
3.68702,15326
3.78482,14828
3.88261,13706
3.98041,13255
4.07821,12576
4.17601,11839
4.27381,11540
4.3716,10934
4.4694,10669
4.5672,10419
4.665,9913
4.7628,9701
4.86059,9667
4.95839,9459
5.05619,9179
5.15399,9096
5.25179,8987
5.34958,8817
5.44738,8829
5.54518,8744
5.64298,8685
5.74078,8697
5.83857,8536
5.93637,8485
6.03417,8423
6.13197,8328
6.22977,8523
6.32756,8361
6.42536,8595
6.52316,8194
6.62096,8243
6.71876,8167
6.81655,7857
6.91435,7904
7.01215,7817
7.10995,7768
7.20775,7674
7.30554,7685
7.40334,7424
7.50114,7501
7.59894,7349
7.69674,7484
7.79453,7395
7.89233,7145
7.99013,7165
8.08793,6976
8.18573,6952
8.28352,6876
8.38132,6781
8.47912,6870
8.57692,6739
8.67471,6707
8.77251,6721
8.87031,6640
8.96811,6813
9.06591,6624
9.1637,6585
9.2615,6672
9.3593,6753
9.4571,6725
9.5549,6817
9.65269,6956
9.75049,7068
9.84829,7255
9.94609,7158
10.0439,7065
10.1417,6679
10.2395,6586
10.3373,6370
10.4351,6342
10.5329,6347
10.6307,6202
10.7285,6207
10.8263,6006
10.9241,6012
11.0219,5895
11.1197,5933
11.2175,5955
11.3153,5836
11.4131,6017
11.5109,5833
11.6087,5973
11.7065,5894
11.8042,5767
11.902,6105
11.9998,5835
12.0976,5964
12.1954,6064
12.2932,5950
12.391,5984
12.4888,5956
12.5866,6045
12.6844,6176
12.7822,6208
12.88,6537
12.9778,6644
13.0756,6856
13.1734,7237
13.2712,7453
13.369,7937
13.4668,8742
13.5646,9537
13.6624,11254
13.7602,13179
13.858,15926
13.9558,18959
14.0536,19006
14.1514,14019
14.2492,9646
14.347,7037
14.4448,6062
14.5426,5244
14.6404,4677
14.7382,4523
14.836,4010
14.9338,3923
15.0316,3632
15.1294,3528
15.2272,3486
15.325,3411
15.4228,3279
15.5206,3120
15.6184,3119
15.7162,3083
15.814,3007
15.9118,2819
16.0096,2843
16.1074,2823
16.2052,2903
16.303,2707
16.4008,2812
16.4986,2661
16.5963,2744
16.6941,2644
16.7919,2579
16.8897,2669
16.9875,2689
17.0853,2556
17.1831,2566
17.2809,2462
17.3787,2652
17.4765,2569
17.5743,2616
17.6721,2478
17.7699,2400
17.8677,2482
17.9655,2453
18.0633,2475
18.1611,2502
18.2589,2360
18.3567,2574
18.4545,2469
18.5523,2454
18.6501,2380
18.7479,2372
18.8457,2384
18.9435,2359
19.0413,2343
19.1391,2471
19.2369,2377
19.3347,2355
19.4325,2453
19.5303,2426
19.6281,2398
19.7259,2368
19.8237,2429
19.9215,2421
20.0193,2443
20.1171,2465
20.2149,2496
20.3127,2501
20.4105,2484
20.5083,2447
20.6061,2367
20.7039,2380
20.8017,2362
20.8995,2321
20.9973,2483
21.0951,2368
21.1929,2218
21.2907,2253
21.3884,2233
21.4862,2257
21.584,2281
21.6818,2265
21.7796,2257
21.8774,2180
21.9752,2260
22.073,2286
22.1708,2293
22.2686,2339
22.3664,2425
22.4642,2600
22.562,2728
22.6598,2947
22.7576,3197
22.8554,3276
22.9532,3108
23.051,3012
23.1488,3055
23.2466,2969
23.3444,2823
23.4422,2882
23.54,2879
23.6378,2763
23.7356,2794
23.8334,2828
23.9312,2877
24.029,2753
24.1268,2804
24.2246,2781
24.3224,2869
24.4202,2836
24.518,2824
24.6158,2808
24.7136,2781
24.8114,2775
24.9092,2697
25.007,2730
25.1048,2711
25.2026,2721
25.3004,2702
25.3982,2720
25.496,2664
25.5938,2743
25.6916,2807
25.7894,2741
25.8872,2854
25.985,2750
26.0828,2701
26.1805,2776
26.2783,2699
26.3761,2765
26.4739,2815
26.5717,2887
26.6695,2862
26.7673,2812
26.8651,2934
26.9629,3010
27.0607,3032
27.1585,3059
27.2563,3026
27.3541,3134
27.4519,3175
27.5497,3311
27.6475,3335
27.7453,3563
27.8431,3815
27.9409,3994
28.0387,4272
28.1365,4758
28.2343,5355
28.3321,6270
28.4299,8006
28.5277,10624
28.6255,14433
28.7233,14704
28.8211,10954
28.9189,8618
29.0167,7185
29.1145,6438
29.2123,5886
29.3101,5286
29.4079,4975
29.5057,4899
29.6035,4572
29.7013,4454
29.7991,4259
29.8969,4086
29.9947,4170

File: ENVT4461 S-16 Heated-400.csv
"Angle","Counts"
3.00243,25316
3.10023,23279
3.19803,20708
3.29583,18989
3.39363,17579
3.49142,16106
3.58922,15161
3.68702,14533
3.78482,13748
3.88261,13123
3.98041,12385
4.07821,11865
4.17601,11117
4.27381,10939
4.3716,10534
4.4694,10403
4.5672,10344
4.665,9999
4.7628,9888
4.86059,9940
4.95839,9750
5.05619,9708
5.15399,9890
5.25179,9785
5.34958,9769
5.44738,9969
5.54518,9723
5.64298,10159
5.74078,9933
5.83857,10331
5.93637,10294
6.03417,10212
6.13197,10370
6.22977,10236
6.32756,10497
6.42536,10574
6.52316,10640
6.62096,10757
6.71876,10885
6.81655,10835
6.91435,10772
7.01215,10960
7.10995,10956
7.20775,11108
7.30554,11151
7.40334,11312
7.50114,11249
7.59894,11335
7.69674,11369
7.79453,11177
7.89233,11481
7.99013,11470
8.08793,11654
8.18573,11696
8.28352,11678
8.38132,11847
8.47912,12109
8.57692,11958
8.67471,11962
8.77251,12029
8.87031,12245
8.96811,12225
9.06591,12673
9.1637,12636
9.2615,12603
9.3593,12929
9.4571,13142
9.5549,13438
9.65269,13924
9.75049,14591
9.84829,14764
9.94609,14418
10.0439,13269
10.1417,12384
10.2395,12245
10.3373,12023
10.4351,11711
10.5329,11236
10.6307,10960
10.7285,10618
10.8263,10313
10.9241,10091
11.0219,9740
11.1197,9659
11.2175,9462
11.3153,9312
11.4131,9182
11.5109,8958
11.6087,8886
11.7065,8666
11.8042,8633
11.902,8565
11.9998,8617
12.0976,8496
12.1954,8656
12.2932,8686
12.391,8912
12.4888,9100
12.5866,8995
12.6844,9209
12.7822,9439
12.88,9765
12.9778,10201
13.0756,10731
13.1734,11399
13.2712,12429
13.369,13724
13.4668,15699
13.5646,18745
13.6624,24015
13.7602,31584
13.858,40176
13.9558,46477
14.0536,38186
14.1514,23007
14.2492,15261
14.347,11449
14.4448,9241
14.5426,7771
14.6404,6901
14.7382,6173
14.836,5645
14.9338,5311
15.0316,4921
15.1294,4654
15.2272,4581
15.325,4288
15.4228,4187
15.5206,4028
15.6184,3833
15.7162,3692
15.814,3684
15.9118,3606
16.0096,3530
16.1074,3511
16.2052,3359
16.303,3312
16.4008,3290
16.4986,3209
16.5963,3173
16.6941,3208
16.7919,3135
16.8897,3167
16.9875,2991
17.0853,2971
17.1831,3092
17.2809,2952
17.3787,2954
17.4765,3022
17.5743,2972
17.6721,2807
17.7699,2846
17.8677,2812
17.9655,2904
18.0633,2866
18.1611,2911
18.2589,2797
18.3567,2878
18.4545,2856
18.5523,2792
18.6501,2846
18.7479,2783
18.8457,2829
18.9435,2831
19.0413,2819
19.1391,2912
19.2369,2911
19.3347,2801
19.4325,2856
19.5303,2911
19.6281,2996
19.7259,2877
19.8237,2996
19.9215,2909
20.0193,3127
20.1171,3264
20.2149,3329
20.3127,3432
20.4105,3155
20.5083,3084
20.6061,3030
20.7039,2828
20.8017,2830
20.8995,2791
20.9973,2619
21.0951,2621
21.1929,2728
21.2907,2582
21.3884,2641
21.4862,2494
21.584,2497
21.6818,2627
21.7796,2556
21.8774,2548
21.9752,2668
22.073,2521
22.1708,2566
22.2686,2598
22.3664,2615
22.4642,2878
22.562,2838
22.6598,2984
22.7576,3007
22.8554,2911
22.9532,2926
23.051,2763
23.1488,2898
23.2466,2858
23.3444,2754
23.4422,2798
23.54,2730
23.6378,2757
23.7356,2960
23.8334,3032
23.9312,2809
24.029,2869
24.1268,2817
24.2246,2730
24.3224,2752
24.4202,2676
24.518,2748
24.6158,2749
24.7136,2679
24.8114,2752
24.9092,2765
25.007,2710
25.1048,2738
25.2026,2875
25.3004,2772
25.3982,2645
25.496,2680
25.5938,2781
25.6916,2829
25.7894,2781
25.8872,2839
25.985,2895
26.0828,2823
26.1805,2807
26.2783,2888
26.3761,2895
26.4739,2817
26.5717,2831
26.6695,2984
26.7673,3037
26.8651,3135
26.9629,3132
27.0607,3456
27.1585,3392
27.2563,3439
27.3541,3702
27.4519,3838
27.5497,4039
27.6475,4024
27.7453,4569
27.8431,5185
27.9409,5589
28.0387,6456
28.1365,7398
28.2343,9189
28.3321,11990
28.4299,17189
28.5277,24625
28.6255,30755
28.7233,24333
28.8211,17110
28.9189,13205
29.0167,10925
29.1145,9788
29.2123,8695
29.3101,7897
29.4079,7359
29.5057,7103
29.6035,6631
29.7013,6558
29.7991,6299
29.8969,6076
29.9947,6165

File: ENVT4461 S-16 Heated-550.csv
"Angle","Counts"
3.00243,24852
3.10023,22475
3.19803,20435
3.29583,18444
3.39363,16930
3.49142,15745
3.58922,14715
3.68702,13714
3.78482,13109
3.88261,12202
3.98041,11562
4.07821,10917
4.17601,10576
4.27381,10016
4.3716,9516
4.4694,9467
4.5672,9198
4.665,8958
4.7628,8736
4.86059,8584
4.95839,8511
5.05619,8393
5.15399,8444
5.25179,8505
5.34958,8261
5.44738,8466
5.54518,8396
5.64298,8472
5.74078,8632
5.83857,8635
5.93637,8558
6.03417,8814
6.13197,8938
6.22977,8922
6.32756,8991
6.42536,9125
6.52316,9245
6.62096,9425
6.71876,9503
6.81655,9591
6.91435,9612
7.01215,9602
7.10995,9747
7.20775,9762
7.30554,9825
7.40334,9776
7.50114,10112
7.59894,10203
7.69674,10266
7.79453,10482
7.89233,10451
7.99013,10618
8.08793,10716
8.18573,10833
8.28352,11037
8.38132,11130
8.47912,11325
8.57692,11359
8.67471,11559
8.77251,11619
8.87031,11798
8.96811,11990
9.06591,12133
9.1637,12217
9.2615,12605
9.3593,12858
9.4571,13357
9.5549,13726
9.65269,14720
9.75049,15386
9.84829,15509
9.94609,14703
10.0439,13936
10.1417,12964
10.2395,12641
10.3373,11909
10.4351,11656
10.5329,10941
10.6307,10587
10.7285,9843
10.8263,9378
10.9241,8814
11.0219,8255
11.1197,7853
11.2175,7279
11.3153,6850
11.4131,6577
11.5109,6163
11.6087,6001
11.7065,5455
11.8042,5234
11.902,5054
11.9998,4820
12.0976,4630
12.1954,4517
12.2932,4296
12.391,4181
12.4888,3921
12.5866,3974
12.6844,3833
12.7822,3765
12.88,3722
12.9778,3748
13.0756,3438
13.1734,3451
13.2712,3432
13.369,3419
13.4668,3381
13.5646,3310
13.6624,3269
13.7602,3373
13.858,3174
13.9558,3153
14.0536,3187
14.1514,3293
14.2492,3207
14.347,3150
14.4448,3219
14.5426,3145
14.6404,3194
14.7382,3172
14.836,3153
14.9338,3219
15.0316,3173
15.1294,3155
15.2272,3228
15.325,3145
15.4228,3118
15.5206,3122
15.6184,3166
15.7162,3052
15.814,3229
15.9118,3036
16.0096,3096
16.1074,3088
16.2052,3118
16.303,3063
16.4008,2970
16.4986,3013
16.5963,3043
16.6941,3111
16.7919,3107
16.8897,3044
16.9875,2994
17.0853,3109
17.1831,3048
17.2809,3082
17.3787,3075
17.4765,3021
17.5743,3054
17.6721,3131
17.7699,3123
17.8677,3043
17.9655,3087
18.0633,3030
18.1611,3100
18.2589,3174
18.3567,3158
18.4545,3074
18.5523,3191
18.6501,3175
18.7479,3323
18.8457,3201
18.9435,3308
19.0413,3243
19.1391,3219
19.2369,3383
19.3347,3348
19.4325,3314
19.5303,3393
19.6281,3535
19.7259,3558
19.8237,3650
19.9215,3810
20.0193,3988
20.1171,4072
20.2149,3974
20.3127,3723
20.4105,3441
20.5083,3603
20.6061,3569
20.7039,3538
20.8017,3392
20.8995,3381
20.9973,3413
21.0951,3468
21.1929,3365
21.2907,3267
21.3884,3402
21.4862,3187
21.584,3312
21.6818,3283
21.7796,3188
21.8774,3210
21.9752,3158
22.073,3300
22.1708,3241
22.2686,3217
22.3664,3227
22.4642,3241
22.562,3354
22.6598,3417
22.7576,3271
22.8554,3317
22.9532,3439
23.051,3196
23.1488,3294
23.2466,3217
23.3444,3266
23.4422,3231
23.54,3324
23.6378,3253
23.7356,3471
23.8334,3603
23.9312,3351
24.029,3233
24.1268,3250
24.2246,3298
24.3224,3139
24.4202,3194
24.518,3200
24.6158,3145
24.7136,3165
24.8114,3201
24.9092,3185
25.007,3323
25.1048,3304
25.2026,3404
25.3004,3263
25.3982,3163
25.496,3230
25.5938,3224
25.6916,3132
25.7894,3188
25.8872,3228
25.985,3280
26.0828,3209
26.1805,3197
26.2783,3076
26.3761,3243
26.4739,3274
26.5717,3235
26.6695,3323
26.7673,3185
26.8651,3116
26.9629,3348
27.0607,3408
27.1585,3250
27.2563,3342
27.3541,3253
27.4519,3270
27.5497,3333
27.6475,3341
27.7453,3359
27.8431,3317
27.9409,3365
28.0387,3360
28.1365,3367
28.2343,3434
28.3321,3417
28.4299,3272
28.5277,3303
28.6255,3428
28.7233,3538
28.8211,3627
28.9189,3769
29.0167,4067
29.1145,4037
29.2123,3940
29.3101,3951
29.4079,3864
29.5057,4107
29.6035,4147
29.7013,4304
29.7991,4381
29.8969,4610
29.9947,4753

File: ENVT4461 S-16 Mg +moist.csv
"Angle","Counts"
3.00243,28205
3.10023,26102
3.19803,24119
3.29583,21803
3.39363,20680
3.49142,19176
3.58922,17815
3.68702,17017
3.78482,16092
3.88261,15227
3.98041,14213
4.07821,13825
4.17601,12907
4.27381,12561
4.3716,11985
4.4694,11696
4.5672,11201
4.665,10726
4.7628,10360
4.86059,10086
4.95839,9887
5.05619,9529
5.15399,9360
5.25179,9021
5.34958,9027
5.44738,8635
5.54518,8581
5.64298,8304
5.74078,8210
5.83857,8212
5.93637,8031
6.03417,7937
6.13197,7915
6.22977,7592
6.32756,7789
6.42536,7578
6.52316,7497
6.62096,7591
6.71876,7421
6.81655,7271
6.91435,7266
7.01215,7285
7.10995,7076
7.20775,6870
7.30554,6985
7.40334,6914
7.50114,6970
7.59894,7078
7.69674,6856
7.79453,6794
7.89233,6712
7.99013,6847
8.08793,6873
8.18573,6768
8.28352,6686
8.38132,6913
8.47912,6903
8.57692,6831
8.67471,6888
8.77251,6704
8.87031,6852
8.96811,6721
9.06591,6898
9.1637,7074
9.2615,7009
9.3593,7163
9.4571,7364
9.5549,7363
9.65269,7448
9.75049,7469
9.84829,7579
9.94609,7688
10.0439,7460
10.1417,7329
10.2395,7072
10.3373,6805
10.4351,6721
10.5329,6595
10.6307,6631
10.7285,6343
10.8263,6216
10.9241,6266
11.0219,6016
11.1197,5956
11.2175,5767
11.3153,5808
11.4131,5839
11.5109,5660
11.6087,5555
11.7065,5558
11.8042,5334
11.902,5372
11.9998,5525
12.0976,5402
12.1954,5526
12.2932,5508
12.391,5428
12.4888,5499
12.5866,5545
12.6844,5808
12.7822,5808
12.88,5912
12.9778,6123
13.0756,6261
13.1734,6774
13.2712,7101
13.369,7536
13.4668,8390
13.5646,9006
13.6624,10615
13.7602,12478
13.858,14920
13.9558,17184
14.0536,17227
14.1514,15364
14.2492,11435
14.347,8650
14.4448,6821
14.5426,5747
14.6404,4987
14.7382,4555
14.836,4264
14.9338,3995
15.0316,3792
15.1294,3615
15.2272,3512
15.325,3326
15.4228,3338
15.5206,3125
15.6184,3215
15.7162,3089
15.814,3132
15.9118,3075
16.0096,2929
16.1074,2884
16.2052,2821
16.303,2810
16.4008,2819
16.4986,2748
16.5963,2814
16.6941,2739
16.7919,2771
16.8897,2612
16.9875,2722
17.0853,2643
17.1831,2655
17.2809,2527
17.3787,2536
17.4765,2616
17.5743,2557
17.6721,2576
17.7699,2575
17.8677,2509
17.9655,2459
18.0633,2443
18.1611,2579
18.2589,2535
18.3567,2512
18.4545,2434
18.5523,2412
18.6501,2507
18.7479,2422
18.8457,2424
18.9435,2434
19.0413,2389
19.1391,2430
19.2369,2388
19.3347,2395
19.4325,2441
19.5303,2433
19.6281,2375
19.7259,2512
19.8237,2416
19.9215,2368
20.0193,2493
20.1171,2478
20.2149,2628
20.3127,2544
20.4105,2519
20.5083,2413
20.6061,2462
20.7039,2408
20.8017,2491
20.8995,2419
20.9973,2371
21.0951,2341
21.1929,2417
21.2907,2378
21.3884,2263
21.4862,2287
21.584,2292
21.6818,2222
21.7796,2354
21.8774,2319
21.9752,2320
22.073,2306
22.1708,2380
22.2686,2376
22.3664,2548
22.4642,2657
22.562,2811
22.6598,2895
22.7576,3038
22.8554,3185
22.9532,2998
23.051,3044
23.1488,2841
23.2466,2935
23.3444,2768
23.4422,2809
23.54,3018
23.6378,2809
23.7356,2950
23.8334,2831
23.9312,2854
24.029,2807
24.1268,2790
24.2246,2777
24.3224,2770
24.4202,2814
24.518,2829
24.6158,2848
24.7136,2863
24.8114,2692
24.9092,2769
25.007,2749
25.1048,2834
25.2026,2759
25.3004,2770
25.3982,2778
25.496,2743
25.5938,2743
25.6916,2776
25.7894,2702
25.8872,2789
25.985,2811
26.0828,2847
26.1805,2790
26.2783,2795
26.3761,2866
26.4739,2858
26.5717,2837
26.6695,2909
26.7673,2920
26.8651,2942
26.9629,2951
27.0607,3021
27.1585,3113
27.2563,3181
27.3541,3157
27.4519,3255
27.5497,3411
27.6475,3627
27.7453,3652
27.8431,3976
27.9409,4188
28.0387,4559
28.1365,5091
28.2343,5854
28.3321,6834
28.4299,8293
28.5277,10756
28.6255,13614
28.7233,14646
28.8211,13406
28.9189,10728
29.0167,8876
29.1145,7738
29.2123,6921
29.3101,6298
29.4079,5876
29.5057,5443
29.6035,5348
29.7013,5171
29.7991,5054
29.8969,4886
29.9947,4780

File: ENVT4461 S-16 Mg EY 8mins.csv
"Angle","Counts"
3.00243,25900
3.10023,23506
3.19803,21315
3.29583,19116
3.39363,17592
3.49142,16609
3.58922,14992
3.68702,14341
3.78482,13491
3.88261,12477
3.98041,11926
4.07821,11497
4.17601,10969
4.27381,10814
4.3716,10208
4.4694,10144
4.5672,10090
4.665,9939
4.7628,9840
4.86059,9690
4.95839,10042
5.05619,9962
5.15399,9935
5.25179,10243
5.34958,10695
5.44738,10586
5.54518,10622
5.64298,11070
5.74078,11277
5.83857,11178
5.93637,11316
6.03417,11503
6.13197,11895
6.22977,12268
6.32756,12190
6.42536,12053
6.52316,12252
6.62096,11918
6.71876,12043
6.81655,11975
6.91435,11766
7.01215,11747
7.10995,11544
7.20775,11497
7.30554,11264
7.40334,11146
7.50114,10894
7.59894,10764
7.69674,10614
7.79453,10252
7.89233,10371
7.99013,10069
8.08793,9875
8.18573,9989
8.28352,9805
8.38132,9628
8.47912,9616
8.57692,9431
8.67471,9364
8.77251,9429
8.87031,9243
8.96811,9077
9.06591,9012
9.1637,8998
9.2615,9000
9.3593,8949
9.4571,9186
9.5549,9173
9.65269,9352
9.75049,9445
9.84829,9472
9.94609,9212
10.0439,8849
10.1417,8653
10.2395,8105
10.3373,8181
10.4351,8058
10.5329,8054
10.6307,7918
10.7285,7702
10.8263,7561
10.9241,7448
11.0219,7529
11.1197,7424
11.2175,7592
11.3153,7372
11.4131,7096
11.5109,7299
11.6087,7258
11.7065,7300
11.8042,7255
11.902,7254
11.9998,7317
12.0976,7484
12.1954,7557
12.2932,7440
12.391,7741
12.4888,7683
12.5866,8050
12.6844,8255
12.7822,8563
12.88,8935
12.9778,9346
13.0756,9691
13.1734,10609
13.2712,11248
13.369,12578
13.4668,14489
13.5646,16882
13.6624,20471
13.7602,25354
13.858,31010
13.9558,33840
14.0536,27826
14.1514,18502
14.2492,12855
14.347,9977
14.4448,8017
14.5426,6594
14.6404,6081
14.7382,5637
14.836,5052
14.9338,4907
15.0316,4582
15.1294,4336
15.2272,4047
15.325,3990
15.4228,3805
15.5206,3711
15.6184,3602
15.7162,3637
15.814,3445
15.9118,3441
16.0096,3563
16.1074,3443
16.2052,3231
16.303,3166
16.4008,3017
16.4986,3053
16.5963,3084
16.6941,2959
16.7919,2937
16.8897,2939
16.9875,2893
17.0853,2940
17.1831,2890
17.2809,2891
17.3787,2806
17.4765,2860
17.5743,2839
17.6721,2743
17.7699,2740
17.8677,2813
17.9655,2692
18.0633,2751
18.1611,2836
18.2589,2714
18.3567,2604
18.4545,2775
18.5523,2630
18.6501,2763
18.7479,2673
18.8457,2686
18.9435,2741
19.0413,2709
19.1391,2790
19.2369,2655
19.3347,2709
19.4325,2865
19.5303,2697
19.6281,2792
19.7259,2784
19.8237,2772
19.9215,2944
20.0193,2879
20.1171,2949
20.2149,2969
20.3127,2908
20.4105,2917
20.5083,2726
20.6061,2764
20.7039,2606
20.8017,2724
20.8995,2750
20.9973,2622
21.0951,2593
21.1929,2478
21.2907,2482
21.3884,2475
21.4862,2452
21.584,2533
21.6818,2379
21.7796,2355
21.8774,2510
21.9752,2432
22.073,2409
22.1708,2478
22.2686,2473
22.3664,2707
22.4642,2769
22.562,2829
22.6598,2870
22.7576,2833
22.8554,2981
22.9532,2847
23.051,2769
23.1488,2752
23.2466,2713
23.3444,2777
23.4422,2701
23.54,2678
23.6378,2760
23.7356,2794
23.8334,3049
23.9312,2946
24.029,2780
24.1268,2705
24.2246,2606
24.3224,2685
24.4202,2798
24.518,2674
24.6158,2707
24.7136,2634
24.8114,2743
24.9092,2830
25.007,2838
25.1048,2981
25.2026,2881
25.3004,2821
25.3982,2708
25.496,2746
25.5938,2707
25.6916,2843
25.7894,2843
25.8872,2814
25.985,2844
26.0828,2853
26.1805,2847
26.2783,2774
26.3761,2902
26.4739,2980
26.5717,3011
26.6695,2959
26.7673,2984
26.8651,3058
26.9629,3146
27.0607,3191
27.1585,3431
27.2563,3497
27.3541,3571
27.4519,3661
27.5497,4055
27.6475,4195
27.7453,4549
27.8431,4996
27.9409,5556
28.0387,6213
28.1365,7296
28.2343,8727
28.3321,11244
28.4299,15196
28.5277,20866
28.6255,24625
28.7233,20418
28.8211,14981
28.9189,11840
29.0167,10041
29.1145,8752
29.2123,7780
29.3101,7228
29.4079,6680
29.5057,6295
29.6035,6014
29.7013,5794
29.7991,5609
29.8969,5593
29.9947,5435

File: ENVT4461 S-16 Mg+Gly EY.csv
"Angle","Counts"
3.00243,26542
3.10023,24272
3.19803,22045
3.29583,20615
3.39363,18866
3.49142,17624
3.58922,16455
3.68702,15506
3.78482,14857
3.88261,14335
3.98041,13768
4.07821,13383
4.17601,12972
4.27381,12527
4.3716,12411
4.4694,12076
4.5672,11857
4.665,11881
4.7628,12074
4.86059,11956
4.95839,12259
5.05619,12179
5.15399,12367
5.25179,12468
5.34958,12941
5.44738,12736
5.54518,13094
5.64298,13577
5.74078,13236
5.83857,13599
5.93637,13741
6.03417,14076
6.13197,14123
6.22977,14127
6.32756,14019
6.42536,14376
6.52316,14321
6.62096,14226
6.71876,14187
6.81655,14006
6.91435,13843
7.01215,13817
7.10995,13566
7.20775,13331
7.30554,12950
7.40334,12843
7.50114,12443
7.59894,12198
7.69674,12148
7.79453,11970
7.89233,11591
7.99013,11564
8.08793,11419
8.18573,11012
8.28352,11030
8.38132,10809
8.47912,10633
8.57692,10505
8.67471,10245
8.77251,10258
8.87031,10074
8.96811,10019
9.06591,10076
9.1637,10012
9.2615,10018
9.3593,9899
9.4571,10384
9.5549,10470
9.65269,10543
9.75049,11021
9.84829,11379
9.94609,10577
10.0439,10129
10.1417,9467
10.2395,9184
10.3373,8803
10.4351,8686
10.5329,8760
10.6307,8452
10.7285,8275
10.8263,8162
10.9241,7979
11.0219,7830
11.1197,7846
11.2175,7812
11.3153,7751
11.4131,7743
11.5109,7730
11.6087,7735
11.7065,7549
11.8042,7613
11.902,7914
11.9998,7819
12.0976,7889
12.1954,7984
12.2932,8035
12.391,8233
12.4888,8429
12.5866,8821
12.6844,8848
12.7822,9280
12.88,9423
12.9778,10063
13.0756,10567
13.1734,11469
13.2712,12737
13.369,14338
13.4668,16437
13.5646,20021
13.6624,24952
13.7602,32669
13.858,41497
13.9558,47520
14.0536,37975
14.1514,22591
14.2492,15055
14.347,11297
14.4448,9026
14.5426,7741
14.6404,6785
14.7382,6114
14.836,5602
14.9338,5231
15.0316,4856
15.1294,4830
15.2272,4568
15.325,4423
15.4228,4153
15.5206,3985
15.6184,3967
15.7162,3645
15.814,3716
15.9118,3686
16.0096,3905
16.1074,3611
16.2052,3509
16.303,3330
16.4008,3350
16.4986,3241
16.5963,3157
16.6941,3110
16.7919,3008
16.8897,3109
16.9875,3077
17.0853,3043
17.1831,3000
17.2809,2965
17.3787,2947
17.4765,2849
17.5743,2905
17.6721,2859
17.7699,2921
17.8677,2890
17.9655,2877
18.0633,2864
18.1611,2739
18.2589,2807
18.3567,2859
18.4545,2802
18.5523,2863
18.6501,2887
18.7479,2886
18.8457,2795
18.9435,2753
19.0413,2964
19.1391,2812
19.2369,2757
19.3347,2853
19.4325,2847
19.5303,2774
19.6281,2956
19.7259,2817
19.8237,2981
19.9215,3052
20.0193,3047
20.1171,3129
20.2149,3419
20.3127,3480
20.4105,3282
20.5083,3021
20.6061,2966
20.7039,2958
20.8017,2940
20.8995,2976
20.9973,2786
21.0951,2693
21.1929,2730
21.2907,2690
21.3884,2744
21.4862,2652
21.584,2558
21.6818,2545
21.7796,2626
21.8774,2618
21.9752,2536
22.073,2613
22.1708,2456
22.2686,2606
22.3664,2673
22.4642,2758
22.562,2908
22.6598,2998
22.7576,2955
22.8554,3090
22.9532,2925
23.051,2846
23.1488,2815
23.2466,2987
23.3444,2839
23.4422,2911
23.54,2878
23.6378,2971
23.7356,2933
23.8334,3180
23.9312,3041
24.029,2765
24.1268,2804
24.2246,2882
24.3224,2862
24.4202,2874
24.518,2824
24.6158,2727
24.7136,2870
24.8114,2777
24.9092,2798
25.007,2826
25.1048,2901
25.2026,2961
25.3004,2968
25.3982,2871
25.496,2683
25.5938,2835
25.6916,2868
25.7894,2896
25.8872,2991
25.985,2904
26.0828,2763
26.1805,2944
26.2783,2925
26.3761,2791
26.4739,3023
26.5717,3002
26.6695,3026
26.7673,3078
26.8651,3209
26.9629,3379
27.0607,3504
27.1585,3568
27.2563,3668
27.3541,3601
27.4519,4052
27.5497,4201
27.6475,4410
27.7453,4837
27.8431,5385
27.9409,6050
28.0387,6848
28.1365,8236
28.2343,10170
28.3321,12876
28.4299,18534
28.5277,26942
28.6255,31547
28.7233,24608
28.8211,17005
28.9189,13191
29.0167,10846
29.1145,9353
29.2123,8421
29.3101,7631
29.4079,7130
29.5057,6512
29.6035,6428
29.7013,6227
29.7991,5941
29.8969,5897
29.9947,5629