Folder: Ashfield-REE/clay-plate-XRD-S2-2022 (part 4)

File: ENVT4461 S-16 Mg+Gly.csv
"Angle","Counts"
3.00243,21363
3.10023,19641
3.19803,18165
3.29583,16629
3.39363,15803
3.49142,14538
3.58922,13491
3.68702,12596
3.78482,11631
3.88261,10844
3.98041,10336
4.07821,9610
4.17601,8812
4.27381,8190
4.3716,7794
4.4694,7059
4.5672,6812
4.665,6205
4.7628,5937
4.86059,5341
4.95839,5182
5.05619,4772
5.15399,4545
5.25179,4403
5.34958,4090
5.44738,3943
5.54518,3893
5.64298,3671
5.74078,3611
5.83857,3435
5.93637,3369
6.03417,3374
6.13197,3421
6.22977,3222
6.32756,3279
6.42536,3295
6.52316,3299
6.62096,3305
6.71876,3219
6.81655,3234
6.91435,3330
7.01215,3337
7.10995,3354
7.20775,3369
7.30554,3429
7.40334,3473
7.50114,3525
7.59894,3503
7.69674,3624
7.79453,3678
7.89233,3604
7.99013,3634
8.08793,3631
8.18573,3663
8.28352,3878
8.38132,3696
8.47912,3772
8.57692,3908
8.67471,3861
8.77251,3775
8.87031,3888
8.96811,4027
9.06591,3904
9.1637,3973
9.2615,3968
9.3593,4077
9.4571,4060
9.5549,4183
9.65269,4219
9.75049,4433
9.84829,4380
9.94609,4360
10.0439,4527
10.1417,4606
10.2395,4601
10.3373,4340
10.4351,4432
10.5329,4213
10.6307,4212
10.7285,4165
10.8263,4081
10.9241,4068
11.0219,3886
11.1197,3930
11.2175,3952
11.3153,3895
11.4131,3851
11.5109,4014
11.6087,3911
11.7065,3865
11.8042,3761
11.902,3820
11.9998,3724
12.0976,3738
12.1954,3826
12.2932,3948
12.391,3881
12.4888,3912
12.5866,3897
12.6844,4067
12.7822,4116
12.88,4053
12.9778,4193
13.0756,4349
13.1734,4507
13.2712,4635
13.369,4933
13.4668,5243
13.5646,5565
13.6624,6359
13.7602,7341
13.858,8358
13.9558,9663
14.0536,11135
14.1514,12109
14.2492,12800
14.347,12262
14.4448,10486
14.5426,8128
14.6404,6122
14.7382,4928
14.836,4097
14.9338,3675
15.0316,3232
15.1294,3202
15.2272,2931
15.325,2680
15.4228,2654
15.5206,2529
15.6184,2424
15.7162,2389
15.814,2353
15.9118,2350
16.0096,2174
16.1074,2089
16.2052,2260
16.303,2144
16.4008,2161
16.4986,2120
16.5963,1979
16.6941,2005
16.7919,2041
16.8897,2025
16.9875,1973
17.0853,1799
17.1831,1936
17.2809,1962
17.3787,1893
17.4765,1732
17.5743,1859
17.6721,1780
17.7699,1861
17.8677,1813
17.9655,1818
18.0633,1806
18.1611,1836
18.2589,1805
18.3567,1758
18.4545,1720
18.5523,1708
18.6501,1725
18.7479,1744
18.8457,1779
18.9435,1778
19.0413,1803
19.1391,1782
19.2369,1770
19.3347,1753
19.4325,1733
19.5303,1783
19.6281,1765
19.7259,1798
19.8237,1735
19.9215,1740
20.0193,1777
20.1171,1758
20.2149,1776
20.3127,1791
20.4105,1848
20.5083,1913
20.6061,1973
20.7039,1806
20.8017,1872
20.8995,1754
20.9973,1772
21.0951,1812
21.1929,1738
21.2907,1764
21.3884,1737
21.4862,1822
21.584,1717
21.6818,1747
21.7796,1628
21.8774,1665
21.9752,1655
22.073,1647
22.1708,1577
22.2686,1613
22.3664,1675
22.4642,1575
22.562,1741
22.6598,1734
22.7576,1796
22.8554,1858
22.9532,1875
23.051,1932
23.1488,2036
23.2466,1969
23.3444,1896
23.4422,1880
23.54,1879
23.6378,1914
23.7356,1808
23.8334,2015
23.9312,1846
24.029,1889
24.1268,1830
24.2246,1813
24.3224,1818
24.4202,1863
24.518,1754
24.6158,1886
24.7136,1910
24.8114,1882
24.9092,1954
25.007,1883
25.1048,1904
25.2026,1887
25.3004,1921
25.3982,1934
25.496,1868
25.5938,1700
25.6916,1847
25.7894,1777
25.8872,1812
25.985,1946
26.0828,1860
26.1805,1843
26.2783,1856
26.3761,1861
26.4739,1882
26.5717,1920
26.6695,1920
26.7673,1844
26.8651,1870
26.9629,1987
27.0607,1968
27.1585,1876
27.2563,1980
27.3541,2123
27.4519,2091
27.5497,2172
27.6475,2201
27.7453,2234
27.8431,2345
27.9409,2433
28.0387,2637
28.1365,2690
28.2343,3001
28.3321,3413
28.4299,3876
28.5277,4334
28.6255,5137
28.7233,6399
28.8211,8574
28.9189,10302
29.0167,11173
29.1145,10138
29.2123,8476
29.3101,6950
29.4079,5997
29.5057,5273
29.6035,4636
29.7013,4301
29.7991,4127
29.8969,3861
29.9947,3672