Folder: Ashfield-REE/RP-XRD-S2-2022 (part 2)

File: S24.csv
Angle,Counts
3.7819,17174
4.0459,14090.2
4.3099,11618.1
4.5739,9798.07
4.8379,8099.62
5.1019,7081.32
5.3659,6128.13
5.6299,5491
5.8939,5147.08
6.1579,4952.61
6.4219,4805.91
6.6859,4627.09
6.9499,4536.18
7.2139,4406.7
7.4779,4110.16
7.7419,4187.22
8.0059,3935.98
8.2699,3947.5
8.5339,3918.16
8.7979,3773.056
9.0619,3768.91
9.3259,3773.7
9.5899,3640.1
9.8539,3581.55
10.1179,3630.62
10.3819,3572.764
10.6459,3350.04
10.9099,3506.82
11.1739,3394.823
11.4379,3280.99
11.7019,3165.23
11.9659,3160.354
12.2299,3210.55
12.4939,3103.79
12.7579,3086.351
13.0219,3042.45
13.2859,2885.98
13.5499,2915.31
13.8139,2800.9
14.0779,2891.407
14.3419,2962.45
14.6059,2814.04
14.8699,2606.81
15.1339,2611.73
15.3979,2592.17
15.6619,2507.23
15.9259,2542.54
16.1899,2580.92
16.4539,2396.49
16.7179,2283.46
16.9819,2187.84
17.2459,2217.32
17.5099,2250.55
17.7739,2175.5
18.0379,2097.63
18.3019,2035.99
18.5659,2059.87
18.8299,2105.761
19.0939,1996.04
19.3579,1922.14
19.6219,1926.35
19.8859,1988.99
20.1499,1913.12
20.4139,1902.19
20.6779,1953.79
20.9419,1938.58
21.2059,1925.575
21.4699,1861.48
21.7339,1854.758
21.9979,2058.56
22.2619,1822.34
22.5259,1792.42
22.7899,1752.63
23.0539,1821.58
23.3179,1887.17
23.5819,1852
23.8459,2103.87
24.1099,4584.69
24.3739,10653.2
24.6379,2148.63
24.9019,1776.4
25.1659,1786.04
25.4299,1683.891
25.6939,1794.15
25.9579,1739.41
26.2219,1720.32
26.4859,1607.12
26.7499,1763.08
27.0139,1824.64
27.2779,1611.2
27.5419,1616.46
27.8059,1672.74
28.0699,3033.97
28.3339,1782.66
28.5979,1632.19
28.8619,1744.03
29.1259,1637.15
29.3899,1635.4
29.6539,1670.9
29.9179,1838.62
30.1819,1698.42
30.4459,2308.99
30.7099,4014.44
30.9739,61638.6
31.2379,6616.43
31.5019,2758.93
31.7659,2092.19
32.0299,3359.846
32.2939,1885.71
32.5579,3841.71
32.8219,1763.47
33.0859,1871.34
33.3499,1586.826
33.6139,1632.67
33.8779,1481.41
34.1419,1459.39
34.4059,1697.72
34.6699,1444.61
34.9339,1463.15
35.1979,1460.39
35.4619,1412.78
35.7259,1304.29
35.9899,1366.75
36.2539,1279.27
36.5179,1341.18
36.7819,1249.89
37.0459,1188.947
37.3099,1237.76
37.5739,1248.81
37.8379,1178.54
38.1019,1164.22
38.3659,1191.18
38.6299,1170.12
38.8939,1150.78
39.1579,1127.97
39.4219,1181.81
39.6859,1159.519
39.9499,1180.661
40.2139,1155.61
40.4779,1202.08
40.7419,1150.74
41.0059,1275.956
41.2699,1187.49
41.5339,1144.22
41.7979,1090.08
42.0619,1169.27
42.3259,1238.47
42.5899,2294.06
42.8539,4185.08
43.1179,1228
43.3819,1118.27
43.6459,1099.53
43.9099,1131.42
44.1739,1057.31
44.4379,1071.72
44.7019,1009.26
44.9659,1091.05
45.2299,1064.65
45.4939,1067.404
45.7579,1055.12
46.0219,1463.23
46.2859,5956.415
46.5499,1159.469
46.8139,1054.73
47.0779,2378.98
47.3419,1486.85
47.6059,1007.61
47.8699,929.0793
48.1339,998.8143
48.3979,1008.07
48.6619,952.7137
48.9259,1135.699
49.1899,980.1563
49.4539,1084.67
49.7179,9134.47
49.9819,1114.13
50.2459,928.0647
50.5099,892.6108
50.7739,945.3302
51.0379,910.6047
51.3019,862
51.5659,874.4782
51.8299,876.9056
52.0939,892.9381
52.3579,860.6222
52.6219,865.5693
52.8859,917.0444
53.1499,883.8526
53.4139,1031.45
53.6779,3917.899
53.9419,1206.62
54.2059,855.2093
54.4699,829.1059
54.7339,804.2299
54.9979,807.9557
55.2619,840.6283
55.5259,858.4748
55.7899,897.7669
56.0539,859.558
56.3179,819.2448
56.5819,814.5074
56.8459,787.0972
57.1099,826.1774
57.3739,854.8791
57.6379,781.018
57.9019,793.6519
58.1659,829.3394
58.4299,883.637
58.6939,1331.96
58.9579,21052.3
59.2219,1666.18
59.4859,1083.99
59.7499,886.4365
60.0139,843.9643
60.2779,798.2241
60.5419,738.5075
60.8059,719.1327
61.0699,720.8819
61.3339,738.466
61.5979,691.7347
61.8619,752.829
62.1259,729.2536
62.3899,735.6995
62.6539,731.3097
62.9179,763.1591
63.1819,677.4074
63.4459,836.6665
63.7099,716.6693
63.9739,789.1682
64.2379,815.7052
64.5019,938.7053
64.7659,3239.83
65.0299,1002.3
65.2939,1882.13
65.5579,807.3712
65.8219,758.9614
66.0859,715.5223
66.3499,671.6897
66.6139,695.6845
66.8779,765.2062
67.1419,702.5841
67.4059,698.4663
67.6699,822.4542
67.9339,683.4779
68.1979,694.7405
68.4619,732.6013
68.7259,667.5311
68.9899,670.6784
69.2539,705.342
69.5179,630.646
69.7819,660.386
70.0459,657.9708
70.3099,695.3008
70.5739,940.2711
70.8379,2755.35
71.1019,6825.96
71.3659,875.2353
71.6299,707.1683
71.8939,673.6993
72.1579,699.7875
72.4219,704.0704
72.6859,655.5398
72.9499,663.4186
73.2139,680.3245
73.4779,642.6015
73.7419,643.9297
74.0059,662.9618
74.2699,654.9201
74.5339,615.6962
74.7979,633.3302
75.0619,672.0976
75.3259,622.4424
75.5899,691.708
75.8539,829.5577
76.1179,1100.3
76.3819,679.4276
76.6459,669.221
76.9099,614.5899
77.1739,603.0503
77.4379,616.8054
77.7019,614.7671
77.9659,660.0913
78.2299,1001.56
78.4939,715.5662
78.7579,664.8703
79.0219,663.6633
79.2859,614.0974
79.5499,652.3216
79.8139,661.8847
79.9899,676.5427

File: S25.csv
Angle,Counts
6.3714,2434.32
6.6244,2387.49
6.8774,2324.5
7.1304,2219.28
7.3834,2145.09
7.6364,2121.53
7.8894,2041.14
8.1424,1950.93
8.3954,1973.6
8.6484,1899.03
8.9014,1914.518
9.1544,1842.75
9.4074,1817.1
9.6604,1743.598
9.9134,1706.19
10.1664,1766.66
10.4194,1735.5
10.6724,1639.377
10.9254,1574.43
11.1784,1590.5
11.4314,1570.4
11.6844,1609.01
11.9374,1563.18
12.1904,1620.011
12.4434,1565.53
12.6964,1505.47
12.9494,1537.26
13.2024,1487.04
13.4554,1457.85
13.7084,1375.53
13.9614,1436.32
14.2144,1406.64
14.4674,1404.66
14.7204,1260.64
14.9734,1293.52
15.2264,1293.37
15.4794,1320.83
15.7324,1262.58
15.9854,1234.36
16.2384,1252.73
16.4914,1238.37
16.7444,1177.705
16.9974,1130.42
17.2504,1096.848
17.5034,1084.67
17.7564,1100.85
18.0094,1040.11
18.2624,1043.92
18.5154,1034.93
18.7684,1035.64
19.0214,1043.92
19.2744,991.5677
19.5274,983.21
19.7804,1065.24
20.0334,970.8325
20.2864,976.9933
20.5394,1002.44
20.7924,949.7807
21.0454,1065.76
21.2984,1237.75
21.5514,998.7929
21.8044,995.6951
22.0574,942.6591
22.3104,959.8887
22.5634,890.9182
22.8164,894.9367
23.0694,995.2667
23.3224,962.9117
23.5754,1057.08
23.8284,1155.01
24.0814,2319.81
24.3344,7850.03
24.5874,1123.18
24.8404,954.8391
25.0934,944.5827
25.3464,937.6857
25.5994,965.7846
25.8524,913.0499
26.1054,946.3095
26.3584,880.5021
26.6114,884.4404
26.8644,1007.25
27.1174,847.3347
27.3704,913.5209
27.6234,829.1715
27.8764,1001.92
28.1294,1353.15
28.3824,890.3643
28.6354,826.3312
28.8884,898.1719
29.1414,862.2362
29.3944,865.6635
29.6474,871.5992
29.9004,932.9456
30.1534,882.5354
30.4064,1115.93
30.6594,1859.75
30.9124,15489.7
31.1654,6066.54
31.4184,1642.47
31.6714,1036.9
31.9244,1486.22
32.1774,989.9576
32.4304,1245.88
32.6834,1082.5
32.9364,899.0006
33.1894,859.4388
33.4424,812.3282
33.6954,833.5986
33.9484,785.3008
34.2014,919.0841
34.4544,907.5753
34.7074,787.7271
34.9604,741.5273
35.2134,806.526
35.4664,751.1482
35.7194,771.8614
35.9724,778.1438
36.2254,692.9968
36.4784,770.0351
36.7314,695.0788
36.9844,670.6515
37.2374,685.5187
37.4904,697.98
37.7434,641.1456
37.9964,647.5877
38.2494,652.2603
38.5024,688.7181
38.7554,629.6566
39.0084,631.9339
39.2614,591.0765
39.5144,611.9295
39.7674,610.2626
40.0204,666.0304
40.2734,618.9833
40.5264,642.5235
40.7794,699.6662
41.0324,646.6192
41.2854,685.0304
41.5384,652.9479
41.7914,627.2805
42.0444,701.7081
42.2974,666.856
42.5504,994.6313
42.8034,3165.34
43.0564,704.2078
43.3094,612.4936
43.5624,640.5822
43.8154,626.7702
44.0684,606
44.3214,573.7059
44.5744,555.7537
44.8274,595.724
45.0804,608.4191
45.3334,576.5564
45.5864,577.0941
45.8394,641.7694
46.0924,2044.79
46.3454,856.5265
46.5984,584.8658
46.8514,588.0502
47.1044,2174.21
47.3574,652.9517
47.6104,553.3999
47.8634,561.0355
48.1164,545.3266
48.3694,563.4636
48.6224,584.1394
48.8754,543.3285
49.1284,514.4588
49.3814,563.4272
49.6344,1530.02
49.8874,924.6326
50.1404,546.6408
50.3934,531.4153
50.6464,576.0901
50.8994,509.792
51.1524,482.339
51.4054,471.1693
51.6584,492.0105
51.9114,495.0688
52.1644,498.6445
52.4174,473.6335
52.6704,468.7789
52.9234,508.1725
53.1764,527.7787
53.4294,536.0728
53.6824,2654.22
53.9354,640.1776
54.1884,496.7976
54.4414,461.7249
54.6944,449.6574
54.9474,463.6411
55.2004,492.1415
55.4534,487.5884
55.7064,463.8962
55.9594,489.3724
56.2124,491.1632
56.4654,462.1294
56.7184,471.2965
56.9714,499.9224
57.2244,476.0679
57.4774,443.4592
57.7304,432.0019
57.9834,438.2147
58.2364,505.0922
58.4894,540.9467
58.7424,768.682
58.9954,5200.29
59.2484,717.9222
59.5014,679.5331
59.7544,500.4345
60.0074,438.1242
60.2604,451.0098
60.5134,437.234
60.7664,419.3334
61.0194,412.0938
61.2724,444.1704
61.5254,448.1427
61.7784,423.8461
62.0314,406.5211
62.2844,396.8143
62.5374,434.9399
62.7904,419.5443
63.0434,427.4712
63.2964,419.5404
63.5494,447.1979
63.8024,413.7147
64.0554,417.7559
64.3084,441.2945
64.5614,677.6658
64.8144,1344.84
65.0674,505.8823
65.3204,673.2807
65.5734,431.8577
65.8264,416.9136
66.0794,396.5973
66.3324,426.962
66.5854,380.6223
66.8384,392.1269
67.0914,398.384
67.3444,416.3341
67.5974,485.8495
67.8504,416.244
68.1034,400.4924
68.3564,383.674
68.6094,383.9473
68.8624,383.2947
69.1154,380.0114
69.3684,380.0162
69.6214,384.4203
69.8744,370.9072
70.1274,378.3992
70.3804,412.8239
70.6334,531.5674
70.8864,4083
71.1394,2278.28
71.3924,466.3029
71.6454,418.4814
71.8984,407.2281
72.1514,407.5185
72.4044,382.957
72.6574,392.3642
72.9104,356.2279
73.1634,370.7156
73.4164,368.8182
73.6694,389.1384
73.9224,393.7488
74.1754,350.3369
74.4284,351.2955
74.6814,345.1812
74.9344,383.6593
75.1874,359.7603
75.4404,389.35
75.6934,441.5156
75.9464,842.5421
76.1994,694.9618
76.4524,377.6842
76.7054,352.6877
76.9584,364.8223
77.2114,377.9248
77.4644,353.9653
77.7174,355.0334
77.9704,403.7784
78.2234,498.3559
78.4764,358.0795
78.7294,369.6794
78.9824,377.9746
79.2354,338.9762
79.4884,358.4699
79.7414,374.971
79.9724,88.987

File: S31.csv
Pos. [°2?],Intensity [Counts]
6.4219,5535.89
6.6859,5333.87
6.9499,5181.4
7.2139,5166.44
7.4779,4930.21
7.7419,4780.23
8.0059,4796.98
8.2699,4675.88
8.5339,4402.115
8.7979,4397.29
9.0619,4162.56
9.3259,3972.58
9.5899,3902.469
9.8539,3915.295
10.1179,4043.18
10.3819,3965.14
10.6459,3435.42
10.9099,3395.52
11.1739,3205.96
11.4379,3194.81
11.7019,3145.33
11.9659,2996.56
12.2299,3182.28
12.4939,2926.17
12.7579,2993.885
13.0219,2987.292
13.2859,3042.35
13.5499,3120.85
13.8139,3395.54
14.0779,4135.92
14.3419,5812.17
14.6059,3200.43
14.8699,2687.03
15.1339,2613.63
15.3979,2491.16
15.6619,2491.12
15.9259,2531.6
16.1899,2406.52
16.4539,2392.25
16.7179,2215.05
16.9819,2236.27
17.2459,2274.27
17.5099,2100.8
17.7739,2222.49
18.0379,2107.04
18.3019,2122.23
18.5659,2211.22
18.8299,2061.9
19.0939,2033.1
19.3579,2052.62
19.6219,2054.239
19.8859,2020.04
20.1499,2078.35
20.4139,2124.86
20.6779,2358.83
20.9419,2116.6
21.2059,2272.87
21.4699,2110.77
21.7339,2063.5
21.9979,2108.469
22.2619,2107.48
22.5259,2336.14
22.7899,2840.46
23.0539,3933.33
23.3179,3737.7
23.5819,3488.96
23.8459,3484.03
24.1099,4931.12
24.3739,4636.48
24.6379,3227.395
24.9019,3179.39
25.1659,2829.86
25.4299,2704.84
25.6939,3039.05
25.9579,2726.3
26.2219,2552.19
26.4859,2505.22
26.7499,2667.09
27.0139,2575.63
27.2779,2439.94
27.5419,2668.93
27.8059,2468.52
28.0699,3048.09
28.3339,2821.42
28.5979,2701.74
28.8619,3736.12
29.1259,3353.33
29.3899,2959.35
29.6539,2994.79
29.9179,2553.43
30.1819,2363.93
30.4459,2742.85
30.7099,4010.06
30.9739,40454.3
31.2379,4445.03
31.5019,2754.08
31.7659,2522.23
32.0299,3448.44
32.2939,2851.64
32.5579,8578.76
32.8219,2521.29
33.0859,2130.9
33.3499,2018.66
33.6139,1896.33
33.8779,1859.68
34.1419,1909.86
34.4059,2066.342
34.6699,1871.72
34.9339,1976.87
35.1979,2321.42
35.4619,1988.48
35.7259,1863.22
35.9899,1848.25
36.2539,1629.33
36.5179,1722.6
36.7819,1716.95
37.0459,1690.35
37.3099,1643.85
37.5739,1547.02
37.8379,1596.92
38.1019,1511.23
38.3659,1644.29
38.6299,2003.67
38.8939,1623.01
39.1579,1493.59
39.4219,1506.38
39.6859,1610.593
39.9499,1745.25
40.2139,1766.66
40.4779,2011.06
40.7419,2438.73
41.0059,2366.17
41.2699,2116.15
41.5339,2183.86
41.7979,2063.82
42.0619,2185.66
42.3259,1978.12
42.5899,2963.05
42.8539,2457.55
43.1179,2025.52
43.3819,2133.05
43.6459,1828.84
43.9099,1898.34
44.1739,2012.12
44.4379,1820.88
44.7019,1907.83
44.9659,2117.22
45.2299,1833.19
45.4939,1732.46
45.7579,1891.44
46.0219,2098.33
46.2859,2850.48
46.5499,1551.95
46.8139,1633.88
47.0779,2674.34
47.3419,1579.42
47.6059,1609.63
47.8699,1489.96
48.1339,1473.51
48.3979,1469.153
48.6619,1376.525
48.9259,1583.43
49.1899,1380.9
49.4539,1384.52
49.7179,4797.415
49.9819,1438.57
50.2459,1428.24
50.5099,1273.69
50.7739,1254.92
51.0379,1293.413
51.3019,1241.17
51.5659,1234.76
51.8299,1269.19
52.0939,1192.73
52.3579,1309.32
52.6219,1259.71
52.8859,1298.4
53.1499,1423.53
53.4139,1576.48
53.6779,3087.44
53.9419,1323.5
54.2059,1254.65
54.4699,1243.57
54.7339,1226.04
54.9979,1216.25
55.2619,1352.39
55.5259,1286.177
55.7899,1335.64
56.0539,1262.02
56.3179,1269.5
56.5819,1227.6
56.8459,1287.19
57.1099,1170.01
57.3739,1107.6
57.6379,1193.168
57.9019,1129.8
58.1659,1177.78
58.4299,1206.2
58.6939,1448.18
58.9579,7386.44
59.2219,1301.02
59.4859,1343.08
59.7499,1149.64
60.0139,1145.09
60.2779,1099.17
60.5419,1055.95
60.8059,1035.73
61.0699,1012.3
61.3339,1074.15
61.5979,1079.9
61.8619,1096.04
62.1259,1087.65
62.3899,1121.73
62.6539,1189.6
62.9179,1111.07
63.1819,1176.09
63.4459,1281.33
63.7099,1260.22
63.9739,1281.62
64.2379,1303.14
64.5019,1382.4
64.7659,2128.57
65.0299,1442.18
65.2939,1446.9
65.5579,1267.35
65.8219,1210.39
66.0859,1221.08
66.3499,1542.76
66.6139,1195.49
66.8779,1196.72
67.1419,1125.33
67.4059,1111.018
67.6699,1111.23
67.9339,1070.73
68.1979,1127.54
68.4619,1110.77
68.7259,1083.65
68.9899,1051.94
69.2539,1086.67
69.5179,1083.19
69.7819,1095.99
70.0459,1093.43
70.3099,1061.69
70.5739,1176.78
70.8379,2846.77
71.1019,3467.05
71.3659,1137.81
71.6299,1081.04
71.8939,1119.31
72.1579,1158.03
72.4219,1170.95
72.6859,1200.18
72.9499,1257.22
73.2139,1333.634
73.4779,1235.85
73.7419,1509.47
74.0059,1320.32
74.2699,1208.54
74.5339,1092.83
74.7979,1084.49
75.0619,1088.89
75.3259,1134.85
75.5899,1147.404
75.8539,1243.24
76.1179,1368.34
76.3819,1106.81
76.6459,1008.84
76.9099,1003.73
77.1739,1019.89
77.4379,1084.66
77.7019,1058.7
77.9659,952.363
78.2299,1057.982
78.4939,984.1063
78.7579,981.6901
79.0219,1019.33
79.2859,966.0642
79.5499,972.8551

File: Sample_01.csv
Pos. [°2?],Intensity [Counts]
6.9279,6219.51
7.1919,5965.45
7.4559,5831.05
7.7199,5727.39
7.9839,5657.52
8.2479,5652.3
8.5119,5468.72
8.7759,5547.62
9.0399,5245.75
9.3039,5448.38
9.5679,5358
9.8319,5210.18
10.0959,5209.95
10.3599,5307.65
10.6239,5056.64
10.8879,5049.41
11.1519,5196.14
11.4159,4983.45
11.6799,4899.29
11.9439,5022.4
12.2079,5153.33
12.4719,4930.298
12.7359,4854.29
12.9999,4898.44
13.2639,5202.38
13.5279,5121.54
13.7919,5075.7
14.0559,5201.95
14.3199,5475.32
14.5839,5478.89
14.8479,4971.888
15.1119,5046.34
15.3759,4977.39
15.6399,5019.24
15.9039,5108.05
16.1679,5250.78
16.4319,5102.036
16.6959,5288.61
16.9599,5265.56
17.2239,5593.81
17.4879,5320.56
17.7519,5493.53
18.0159,5166.63
18.2799,5342.41
18.5439,5269.76
18.8079,5325.73
19.0719,5339.84
19.3359,5254.89
19.5999,5220.97
19.8639,5231.5
20.1279,5268.07
20.3919,5274.3
20.6559,5264.69
20.9199,5373.09
21.1839,5510.44
21.4479,5298.63
21.7119,5184.91
21.9759,5249.31
22.2399,5254.39
22.5039,5437.3
22.7679,5543.07
23.0319,5760.98
23.2959,5810.28
23.5599,5755.57
23.8239,5920.04
24.0879,6660.6
24.3519,7067.48
24.6159,6001.6
24.8799,5903.51
25.1439,5958.14
25.4079,5936.44
25.6719,5865.112
25.9359,5768.05
26.1999,5531.36
26.4639,5490.15
26.7279,5286.05
26.9919,5251.5
27.2559,5025.25
27.5199,4985.732
27.7839,4939.75
28.0479,4870.97
28.3119,5029.32
28.5759,4508.22
28.8399,4793.88
29.1039,4432.76
29.3679,4450.96
29.6319,4289.64
29.8959,4115.28
30.1599,4075.52
30.4239,4211.61
30.6879,4915.7
30.9519,12623.1
31.2159,4589.77
31.4799,4113.29
31.7439,3914.05
32.0079,4412.22
32.2719,3882.18
32.5359,4719.6
32.7999,3864.93
33.0639,3744.11
33.3279,3543.12
33.5919,3452.51
33.8559,3389.78
34.1199,3413.27
34.3839,3505.176
34.6479,3428.19
34.9119,3426.85
35.1759,3540.65
35.4399,3296.81
35.7039,3300.858
35.9679,3265.84
36.2319,3155.94
36.4959,3416.76
36.7599,3165.3
37.0239,3113.84
37.2879,3092.88
37.5519,3009.06
37.8159,3135.27
38.0799,3110.04
38.3439,3088.85
38.6079,3036.322
38.8719,2975.015
39.1359,2959.68
39.3999,3035.9
39.6639,3003.14
39.9279,3026.75
40.1919,3034.26
40.4559,3166.05
40.7199,3241.6
40.9839,3160.88
41.2479,3065.57
41.5119,3083.53
41.7759,3002.75
42.0399,3053.88
42.3039,2972.82
42.5679,3409.384
42.8319,3220.89
43.0959,3005.61
43.3599,2997.58
43.6239,2925.68
43.8879,2959.52
44.1519,2873.26
44.4159,2899.06
44.6799,3080.08
44.9439,3034.83
45.2079,2815.84
45.4719,2760.394
45.7359,2741.1
45.9999,2941.29
46.2639,3053.23
46.5279,2751.88
46.7919,2789.71
47.0559,2905.18
47.3199,2732.52
47.5839,2757.64
47.8479,2653.85
48.1119,2621.83
48.3759,2742.07
48.6399,2606.41
48.9039,2705.31
49.1679,2574.73
49.4319,2652.5
49.6959,3299.41
49.9599,2668.544
50.2239,2520.38
50.4879,2459.97
50.7519,2455.07
51.0159,2597.5
51.2799,2500.86
51.5439,2419.52
51.8079,2406.01
52.0719,2362.85
52.3359,2341.81
52.5999,2335.11
52.8639,2374.79
53.1279,2477.74
53.3919,2434.83
53.6559,2719.195
53.9199,2531.439
54.1839,2276.57
54.4479,2319.68
54.7119,2195.1
54.9759,2260.527
55.2399,2243.18
55.5039,2204.332
55.7679,2155.14
56.0319,2076.42
56.2959,2178.26
56.5599,2146.92
56.8239,2138.55
57.0879,2096
57.3519,2031.35
57.6159,2099.63
57.8799,2083.62
58.1439,2023.33
58.4079,2085.24
58.6719,2257.66
58.9359,2858.86
59.1999,2082.33
59.4639,2084.65
59.7279,1919.492
59.9919,1992.58
60.2559,1956.02
60.5199,1878.589
60.7839,1870.77
61.0479,1785.62
61.3119,1817.951
61.5759,1862.92
61.8399,1789.36
62.1039,1827.055
62.3679,1799.97
62.6319,1816.04
62.8959,1838.583
63.1599,1710.58
63.4239,1846.33
63.6879,1840.08
63.9519,1820.97
64.2159,1812.57
64.4799,1909.71
64.7439,1902.851
65.0079,1874.55
65.2719,1855.37
65.5359,1781.98
65.7999,1702.91
66.0639,1744.698
66.3279,1760.19
66.5919,1683.45
66.8559,1667.82
67.1199,1662.25
67.3839,1701.6
67.6479,1614.2
67.9119,1615.04
68.1759,1734.83
68.4399,1552.79
68.7039,1639.59
68.9679,1660.07
69.2319,1602.36
69.4959,1627.6
69.7599,1603.71
70.0239,1496.15
70.2879,1639.21
70.5519,1655.09
70.8159,2126.18
71.0799,1996.44
71.3439,1570.19
71.6079,1570.17
71.8719,1542.08
72.1359,1557.55
72.3999,1596.82
72.6639,1534.964
72.9279,1557.63
73.1919,1590.26
73.4559,1580.59
73.7199,1642.2
73.9839,1535.49
74.2479,1517.52
74.5119,1505.16
74.7759,1501.52
75.0399,1519.79
75.3039,1534.13
75.5679,1549.12
75.8319,1549.55
76.0959,1558.82
76.3599,1550.87
76.6239,1508.17
76.8879,1485.393
77.1519,1497.748
77.4159,1486.74
77.6799,1454.57
77.9439,1459.33
78.2079,1493.226
78.4719,1455.34
78.7359,1473.52
78.9999,1486.52
79.2639,1424.21
79.5279,1396.5
79.7919,1396.31
79.9899,1447.3

File: Sample_3_G4.csv
Angle,Counts
5.9644,2362.4
6.2174,2221.74
6.4704,2277.03
6.7234,2072.15
6.9764,2081.37
7.2294,2094.13
7.4824,1994.02
7.7354,2047.68
7.9884,2032.2
8.2414,1962.3
8.4944,2029.063
8.7474,1999.5
9.0004,1950.11
9.2534,1945.97
9.5064,1951.3
9.7594,1971.13
10.0124,1932.735
10.2654,2034.86
10.5184,1966.55
10.7714,1897.008
11.0244,1920.57
11.2774,1915.94
11.5304,1849.78
11.7834,1929.06
12.0364,1770.1
12.2894,1812.95
12.5424,1829.25
12.7954,1765.67
13.0484,1779.45
13.3014,1750.96
13.5544,1716.37
13.8074,1750.44
14.0604,1751.59
14.3134,1871.09
14.5664,1834.4
14.8194,1605.37
15.0724,1549.25
15.3254,1548.72
15.5784,1528.61
15.8314,1553.62
16.0844,1490.68
16.3374,1404.1
16.5904,1440.748
16.8434,1411.47
17.0964,1338.289
17.3494,1339.49
17.6024,1381.17
17.8554,1372.42
18.1084,1375.3
18.3614,1345.56
18.6144,1268.99
18.8674,1281.99
19.1204,1301.821
19.3734,1288.73
19.6264,1310.73
19.8794,1278.25
20.1324,1276.34
20.3854,1286.09
20.6384,1347.33
20.8914,1305.76
21.1444,1347.56
21.3974,1302.545
21.6504,1228.33
21.9034,1296.72
22.1564,1303.386
22.4094,1284.248
22.6624,1265.4
22.9154,1347.017
23.1684,1523.11
23.4214,1491.25
23.6744,1486.74
23.9274,1592.148
24.1804,4117.43
24.4334,2045.94
24.6864,1480.23
24.9394,1406.56
25.1924,1371.93
25.4454,1403.1
25.6984,1328.624
25.9514,1295.456
26.2044,1195
26.4574,1306.75
26.7104,1223.08
26.9634,1230.22
27.2164,1275.69
27.4694,1248.37
27.7224,1194.314
27.9754,1290.44
28.2284,1285.78
28.4814,1203.33
28.7344,1269.72
28.9874,1354.43
29.2404,1273.15
29.4934,1254.34
29.7464,1219.6
29.9994,1170.649
30.2524,1173.77
30.5054,1554.11
30.7584,2285.61
31.0114,31156.5
31.2644,3023.06
31.5174,1643.12
31.7704,1280.46
32.0234,1895.19
32.2764,1190.51
32.5294,1372.84
32.7824,1100.83
33.0354,1078.39
33.2884,1118.7
33.5414,1009.28
33.7944,981.5526
34.0474,971.4576
34.3004,1007.21
34.5534,994.4332
34.8064,978.5972
35.0594,1011.93
35.3124,945.6683
35.5654,943.161
35.8184,946.7157
36.0714,905.4072
36.3244,876.3928
36.5774,849.9467
36.8304,880.1392
37.0834,880.281
37.3364,886.0169
37.5894,866.4307
37.8424,903.2534
38.0954,803.6377
38.3484,802.7211
38.6014,824.6537
38.8544,805.2618
39.1074,783.3924
39.3604,763.5859
39.6134,790.0435
39.8664,795.4295
40.1194,845.4198
40.3724,818.7636
40.6254,833.2392
40.8784,925.0896
41.1314,860.9802
41.3844,922.1257
41.6374,928.688
41.8904,881.3517
42.1434,870.7845
42.3964,903.3581
42.6494,2098.15
42.9024,1280.68
43.1554,902.1902
43.4084,806.2901
43.6614,812.4746
43.9144,811.081
44.1674,819.9931
44.4204,777.5176
44.6734,790.8669
44.9264,807.7166
45.1794,861.8849
45.4324,774.1318
45.6854,779.2068
45.9384,836.6918
46.1914,3501.07
46.4444,795.5838
46.6974,735.7372
46.9504,833.0476
47.2034,2656.51
47.4564,761.2963
47.7094,746.986
47.9624,688
48.2154,699.2922
48.4684,683.9678
48.7214,734.1028
48.9744,723.0184
49.2274,679.706
49.4804,736.3198
49.7334,3132.55
49.9864,738.7503
50.2394,646.0003
50.4924,604.7581
50.7454,625.1845
50.9984,639.9931
51.2514,638.8055
51.5044,614.3825
51.7574,647.9428
52.0104,591.8181
52.2634,593.6916
52.5164,632.1695
52.7694,631.7669
53.0224,635.205
53.2754,661.2413
53.5284,682.7359
53.7814,1763.68
54.0344,576.0929
54.2874,636.3098
54.5404,587.4103
54.7934,588.1395
55.0464,592.5531
55.2994,624.2017
55.5524,548.8569
55.8054,560.0324
56.0584,570.2086
56.3114,582.6865
56.5644,599.9868
56.8174,560.5938
57.0704,557.3262
57.3234,648.6255
57.5764,587.0367
57.8294,551.8613
58.0824,577.9174
58.3354,565.16
58.5884,627.9477
58.8414,1448.02
59.0944,3800.826
59.3474,709.2466
59.6004,606.1874
59.8534,559.1168
60.1064,542.0572
60.3594,512.9467
60.6124,507.7807
60.8654,503.1321
61.1184,466.9909
61.3714,500.351
61.6244,490.0292
61.8774,535.4011
62.1304,491.2239
62.3834,471.9835
62.6364,517.9278
62.8894,517.1248
63.1424,525.3366
63.3954,526.6019
63.6484,492.6191
63.9014,555.3509
64.1544,524.0663
64.4074,626.8252
64.6604,1821.95
64.9134,1757.74
65.1664,686.7508
65.4194,719.9364
65.6724,503.1328
65.9254,505.5241
66.1784,505.8873
66.4314,482.1298
66.6844,476.1164
66.9374,473.2387
67.1904,459.634
67.4434,455.0189
67.6964,487.2411
67.9494,452.4775
68.2024,499.2454
68.4554,444.6823
68.7084,467.7107
68.9614,452.6909
69.2144,434.5037
69.4674,444.0734
69.7204,445
69.9734,488.8279
70.2264,473.1279
70.4794,527.6401
70.7324,671.3621
70.9854,3481.84
71.2384,773.0679
71.4914,492.4759
71.7444,462.7728
71.9974,419.2487
72.2504,461.7669
72.5034,457.4342
72.7564,462.5006
73.0094,464.1365
73.2624,464.9526
73.5154,500.5705
73.7684,508.5216
74.0214,492.1271
74.2744,429.9757
74.5274,475.5794
74.7804,471.4026
75.0334,431.2093
75.2864,436.6
75.5394,504.0472
75.7924,462.227
76.0454,877.8394
76.2984,547.5446
76.5514,419.9836
76.8044,410.27
77.0574,415.629
77.3104,439.9833
77.5634,415.2768
77.8164,437.585
78.0694,454.9932
78.3224,481.9411
78.5754,415.714
78.8284,428.6664
79.0814,409.9458
79.3344,416.9297
79.5874,412.4375
79.8404,420.7928