Folder: Ashfield-REE/RP-XRD-S2-2022

Note: README.md
# Ashfield-REE
paper(s) from Ashfield 2019-2022 data, first on REE but later ones maybe not

File: S14.csv
Pos. [°2?],Intensity [Counts],,,
6.6419,5817.79,,,
6.6639,5891.39,,,
6.6859,5996.16,,,
6.7079,5946.35,,,
6.7299,5827.53,,,
6.7519,5749.83,,,
6.7739,5764.61,,,
6.7959,5701.62,,,
6.8179,5777.475,,,
6.8399,5778.12,,,
6.8619,5808.45,,,
6.8839,5861.72,,,
6.9059,5713.75,,,
6.9279,5666.58,,,
6.9499,5778.33,,,
6.9719,5649.87,,,
6.9939,5687.63,,,
7.0159,5694.48,,,
7.0379,5669.704,,,
7.0599,5692.44,,,
7.0819,5651.6,,,
7.1039,5620.75,,,
7.1259,5494.58,,,
7.1479,5425.81,,,
7.1699,5586.85,,,
7.1919,5530.97,,,
7.2139,5582.63,,,
7.2359,5476.44,,,Q= Quartz (SiO2)
7.2579,5430.32,,,K = Kaolinite (Al2Si2O5(OH)4)
7.2799,5362.15,,,M = Muscovite (Mica Group) (Al2K2O6Si)
7.3019,5551.35,,,H = Halite (NaCl)
7.3239,5374.95,,,"A = Albite (Feldspar, NaAlSi3O8)"
7.3459,5344.24,,,
7.5879,5310.21,,,
7.8299,5232.43,,,
8.0719,5094.62,,,
8.3139,5019.12,,,
8.5559,4955.4,,,
8.7979,4769.27,,,
9.0399,4653.44,,,
9.2819,4557.68,,,
9.5239,4545.34,,,
9.7659,4451.46,,,
10.0079,4508.17,,,
10.2499,4935.36,,,
10.4919,4133.58,,,
10.7339,3823.79,,,
10.9759,4002.4,,,
11.2179,3717.85,,,
11.4599,3597.06,,,
11.7019,3621.23,,,
11.9439,3498.4,,,
12.1859,3511.07,,,
12.4279,3297.7,,,
12.6699,3415.35,,,
12.9119,3302.37,,,
13.1539,3276.72,,,
13.3959,3348.75,,,
13.6379,3422.5,,,
13.8799,3779.81,,,
14.1219,4722.05,,,
14.3639,6200.85,,,
14.6059,3559,,,
14.8479,2969.66,,,
15.0899,2648.07,,,
15.3319,2673.32,,,
15.5739,2566.45,,,
15.8159,2517.06,,,
16.0579,2559.1,,,
16.2999,2386.2,,,
16.5419,2344.42,,,
16.7839,2329,,,
17.0259,2340.19,,,
17.2679,2311.94,,,
17.5099,2295.47,,,
17.7519,2277.68,,,
17.9939,2295.02,,,
18.2359,2182.33,,,
18.4779,2226.529,,,
18.7199,2229.16,,,
18.9619,2130.04,,,
19.2039,2189.46,,,
19.4459,2174.7,,,
19.6879,2220.87,,,
19.9299,2130.96,,,
20.1719,2196.26,,,
20.4139,2284.48,,,
20.6559,2420.95,,,
20.8979,2250.26,,,
21.1399,2212.14,,,
21.3819,2174.98,,,
21.6239,2204.63,,,
21.8659,2258.826,,,
22.1079,2320.46,,,
22.3499,2473.26,,,
22.5919,2884.79,,,
22.8339,4104.55,,,
23.0759,5840.99,,,
23.3179,5206.24,,,
23.5599,4668.92,,,
23.8019,4548.11,,,
24.0439,4496.65,,,
24.2859,8846.493,,,
24.5279,4330,,,
24.7699,3934.57,,,
25.0119,3729.44,,,
25.2539,3468.33,,,
25.4959,3558.14,,,
25.7379,3474.67,,,
25.9799,3328.82,,,
26.2219,3247.62,,,
26.4639,3122.29,,,
26.7059,3359.47,,,
26.9479,3253.97,,,
27.1899,3012.45,,,
27.4319,3267.99,,,
27.6739,3149.92,,,
27.9159,3172.14,,,
28.1579,3307.56,,,
28.3999,3277.13,,,
28.6419,3575.67,,,
28.8839,4767.867,,,
29.1259,4366.95,,,
29.3679,3862.32,,,
29.6099,3652.56,,,
29.8519,3296.27,,,
30.0939,3001.5,,,
30.3359,3003.87,,,
30.5779,3128.96,,,
30.8199,3925.65,,,
31.0619,13311.3,,,
31.3039,3275.43,,,
31.5459,3115.98,,,
31.7879,2799.46,,,
32.0299,3523.14,,,
32.2719,2963.43,,,
32.5139,3894.95,,,
32.7559,2748.87,,,
32.9979,2496.49,,,
33.2399,2265.83,,,
33.4819,2206.81,,,
33.7239,2154.12,,,
33.9659,2185.72,,,
34.2079,2111.07,,,
34.4499,2110.45,,,
34.6919,2163.82,,,
34.9339,2207.77,,,
35.1759,2583.16,,,
35.4179,2116.61,,,
35.6599,2008.27,,,
35.9019,2069.82,,,
36.1439,1873,,,
36.3859,2014.41,,,
36.6279,1869.32,,,
36.8699,2106.26,,,
37.1119,1998.48,,,
37.3539,1815.34,,,
37.5959,1753.85,,,
37.8379,1771.62,,,
38.0799,1707.85,,,
38.3219,1641.76,,,
38.5639,1700.553,,,
38.8059,1673.171,,,
39.0479,1601.9,,,
39.2899,1644.73,,,
39.5319,1698.57,,,
39.7739,1819.59,,,
40.0159,2016.86,,,
40.2579,2265.364,,,
40.4999,2521.84,,,
40.7419,3189.94,,,
40.9839,3017.18,,,
41.2259,2620.56,,,
41.4679,2574.89,,,
41.7099,2587.07,,,
41.9519,2761.77,,,
42.1939,2477.96,,,
42.4359,2365.31,,,
42.6779,3219.13,,,
42.9199,2350.77,,,
43.1619,2345.88,,,
43.4039,2271.68,,,
43.6459,2164.39,,,
43.8879,2312.736,,,
44.1299,2460.83,,,
44.3719,2298.57,,,
44.6139,2396.3,,,
44.8559,2712.79,,,
45.0979,2532.54,,,
45.3399,2149.78,,,
45.5819,2021.3,,,
45.8239,2130.72,,,
46.0659,2178.43,,,
46.3079,1985.69,,,
46.5499,1711.89,,,
46.7919,1818.128,,,
47.0339,1880.41,,,
47.2759,1838.96,,,
47.5179,1641.4,,,
47.7599,1633.8,,,
48.0019,1621.6,,,
48.2439,1722.37,,,
48.4859,1630.59,,,
48.7279,1619.6,,,
48.9699,1697.22,,,
49.2119,1574.66,,,
49.4539,1573.23,,,
49.6959,2509.72,,,
49.9379,1499.6,,,
50.1799,1509.46,,,
50.4219,1464.32,,,
50.6639,1517.62,,,
50.9059,1416.09,,,
51.1479,1424.98,,,
51.3899,1373.37,,,
51.6319,1458.04,,,
51.8739,1424.39,,,
52.1159,1456.73,,,
52.3579,1457.34,,,
52.5999,1409.449,,,
52.8419,1508.32,,,
53.0839,1680.52,,,
53.3259,1914.64,,,
53.5679,1674.22,,,
53.8099,1997.35,,,
54.0519,1468.57,,,
54.2939,1484.51,,,
54.5359,1402.65,,,
54.7779,1433.15,,,
55.0199,1390.88,,,
55.2619,1403.65,,,
55.5039,1334.15,,,
55.7459,1372.21,,,
55.9879,1368.67,,,
56.2299,1404.585,,,
56.4719,1399.19,,,
56.7139,1354.99,,,
56.9559,1253.39,,,
57.1979,1267.65,,,
57.4399,1313.21,,,
57.6819,1265.27,,,
57.9239,1301.01,,,
58.1659,1226.86,,,
58.4079,1297.196,,,
58.6499,1330.73,,,
58.8919,2265.64,,,
59.1339,1331.58,,,
59.3759,1350.7,,,
59.6179,1301.41,,,
59.8599,1214.6,,,
60.1019,1290.86,,,
60.3439,1240.22,,,
60.5859,1141.86,,,
60.8279,1116.4,,,
61.0699,1087.2,,,
61.3119,1178.6,,,
61.5539,1214.13,,,
61.7959,1137.17,,,
62.0379,1205.72,,,
62.2799,1187.14,,,
62.5219,1178.96,,,
62.7639,1317.47,,,
63.0059,1291.42,,,
63.2479,1301.67,,,
63.4899,1385.76,,,
63.7319,1483.945,,,
63.9739,1565.19,,,
64.2159,1527.77,,,
64.4579,1618.772,,,
64.6999,1907.04,,,
64.9419,1740.84,,,
65.1839,1700.91,,,
65.4259,1667.4,,,
65.6679,1528.15,,,
65.9099,1458.95,,,
66.1519,1358.69,,,
66.3939,1379.02,,,
66.6359,1475.54,,,
66.8779,1423.451,,,
67.1199,1377.09,,,
67.3619,1322.48,,,
67.6039,1284.32,,,
67.8459,1216.59,,,
68.0879,1195.49,,,
68.3299,1182.63,,,
68.5719,1242.05,,,
68.8139,1216.37,,,
69.0559,1192.34,,,
69.2979,1180.029,,,
69.5399,1170.75,,,
69.7819,1097.625,,,
70.0239,1198.61,,,
70.2659,1177.17,,,
70.5079,1193.65,,,
70.7499,1304.43,,,
70.9919,1563.18,,,
71.2339,1259.69,,,
71.4759,1217.15,,,
71.7179,1211,,,
71.9599,1235.36,,,
72.2019,1270.16,,,
72.4439,1396.78,,,
72.6859,1424.06,,,
72.9279,1485.217,,,
73.1699,1594,,,
73.4119,1674.69,,,
73.6539,1856.4,,,
73.8959,1966.89,,,
74.1379,1683.71,,,
74.3799,1429.3,,,
74.6219,1317.58,,,
74.8639,1299.071,,,
75.1059,1267.05,,,
75.3479,1288.72,,,
75.5899,1216.13,,,
75.8319,1270.24,,,
76.0739,1238.74,,,
76.3159,1133.06,,,
76.5579,1127.55,,,
76.7999,1099.57,,,
77.0419,1131.345,,,
77.2839,1165.36,,,
77.5259,1141.83,,,
77.7679,1137.95,,,
78.0099,1017.8,,,
78.2519,1098.84,,,
78.4939,1049.54,,,
78.7359,1127.35,,,
78.9779,1130.3,,,
79.2199,1074.57,,,
79.4619,1124.56,,,
79.6599,1120.29,,,

File: S15.csv
Angle,Counts
8.5339,5073.49
8.7979,5030.75
9.0619,4938.84
9.3259,4718.28
9.5899,4640.14
9.8539,4617.3
10.1179,4823.55
10.3819,4620.348
10.6459,4132.475
10.9099,4003.19
11.1739,3706.57
11.4379,3652.6
11.7019,3607.2
11.9659,3507.95
12.2299,3438.5
12.4939,3358.531
12.7579,3316.941
13.0219,3356.52
13.2859,3385.22
13.5499,3498.77
13.8139,3955.09
14.0779,4976.07
14.3419,7736.75
14.6059,3998.28
14.8699,3065.5
15.1339,2809.5
15.3979,2758.07
15.6619,2566.23
15.9259,2556.45
16.1899,2473.01
16.4539,2402.18
16.7179,2403.33
16.9819,2387.57
17.2459,2356.35
17.5099,2313.24
17.7739,2330.75
18.0379,2325.52
18.3019,2159.17
18.5659,2203.67
18.8299,2205.3
19.0939,2146.22
19.3579,2162.3
19.6219,2207.64
19.8859,2162.02
20.1499,2207.91
20.4139,2273.74
20.6779,2402.96
20.9419,2324.37
21.2059,2279.62
21.4699,2220.78
21.7339,2211.354
21.9979,2379.08
22.2619,2268.773
22.5259,2786.99
22.7899,3712.21
23.0539,5623.9
23.3179,5201.66
23.5819,4817.49
23.8459,4574.764
24.1099,4533.92
24.3739,4783.265
24.6379,4068.35
24.9019,3923.99
25.1659,3637.97
25.4299,3448.475
25.6939,3996.06
25.9579,3428.07
26.2219,3158.2
26.4859,3152.41
26.7499,3239.78
27.0139,3431.18
27.2779,3126.67
27.5419,3081.85
27.8059,3166.5
28.0699,3271.42
28.3339,3568.67
28.5979,3499.34
28.8619,5072.88
29.1259,4979.37
29.3899,4060.36
29.6539,3824.48
29.9179,3411.65
30.1819,3011.18
30.4459,3048.03
30.7099,3518.96
30.9739,8795.06
31.2379,3587.1
31.5019,3190.49
31.7659,2788.68
32.0299,3863.71
32.2939,3102.27
32.5579,4259.85
32.8219,2729.15
33.0859,2476.81
33.3499,2414.78
33.6139,2165.67
33.8779,2240.73
34.1419,2125.08
34.4059,2215.27
34.6699,2222.68
34.9339,2242.67
35.1979,2269.2
35.4619,2153.19
35.7259,2073.88
35.9899,2077.57
36.2539,1914.761
36.5179,2106.29
36.7819,1960.06
37.0459,2176.57
37.3099,1897.9
37.5739,1836.66
37.8379,1832.81
38.1019,1722.82
38.3659,1760.88
38.6299,1717.85
38.8939,1702.66
39.1579,1717.38
39.4219,1670.64
39.6859,1735.009
39.9499,1965.909
40.2139,2236.75
40.4779,2541.46
40.7419,3290.61
41.0059,3228.43
41.2699,2760.16
41.5339,2643.28
41.7979,2617.8
42.0619,2854.21
42.3259,2379.614
42.5899,2442.74
42.8539,2418.83
43.1179,2320.72
43.3819,2295.03
43.6459,2280.53
43.9099,2359.19
44.1739,2625.04
44.4379,2401.71
44.7019,2586.44
44.9659,2837.64
45.2299,2416.02
45.4939,2180.404
45.7579,2216.99
46.0219,2123.83
46.2859,2114.7
46.5499,1775.83
46.8139,1703.96
47.0779,1956.57
47.3419,1721.41
47.6059,1668.646
47.8699,1669.28
48.1339,1673.62
48.3979,1752.73
48.6619,1668.67
48.9259,1750.27
49.1899,1672.75
49.4539,1579
49.7179,2093.5
49.9819,1653.42
50.2459,1498.89
50.5099,1434.07
50.7739,1438.43
51.0379,1497.09
51.3019,1489.33
51.5659,1495.37
51.8299,1495.93
52.0939,1495.91
52.3579,1457.071
52.6219,1458.71
52.8859,1537.6
53.1499,1770.56
53.4139,1961.62
53.6779,1964.14
53.9419,1635.99
54.2059,1514.51
54.4699,1489.23
54.7339,1454.68
54.9979,1486.03
55.2619,1420.16
55.5259,1393.504
55.7899,1400.78
56.0539,1412.71
56.3179,1480.33
56.5819,1443.43
56.8459,1311.65
57.1099,1277.6
57.3739,1354.75
57.6379,1338.23
57.9019,1419.68
58.1659,1344.501
58.4299,1285.99
58.6939,1425.85
58.9579,2955.67
59.2219,1319.34
59.4859,1434.702
59.7499,1307.28
60.0139,1323.96
60.2779,1310.86
60.5419,1229.912
60.8059,1169.779
61.0699,1130.124
61.3339,1195.14
61.5979,1232.48
61.8619,1212.59
62.1259,1238.466
62.3899,1226.81
62.6539,1294.4
62.9179,1386.89
63.1819,1375.96
63.4459,1482.33
63.7099,1530.44
63.9739,1638.95
64.2379,1678.76
64.5019,1665.224
64.7659,1845.44
65.0299,1812.76
65.2939,1763.83
65.5579,1611.5
65.8219,1580.16
66.0859,1427.59
66.3499,1423.46
66.6139,1489.85
66.8779,1479.53
67.1419,1423.79
67.4059,1297.006
67.6699,1305.45
67.9339,1260.48
68.1979,1263.47
68.4619,1229.09
68.7259,1256.31
68.9899,1225.09
69.2539,1236.56
69.5179,1205.72
69.7819,1210.7
70.0459,1271.74
70.3099,1263.73
70.5739,1315.7
70.8379,1480.21
71.1019,1720.34
71.3659,1321.44
71.6299,1285.38
71.8939,1317.76
72.1579,1326.79
72.4219,1392.65
72.6859,1507.23
72.9499,1487.86
73.2139,1627.183
73.4779,1767.81
73.7419,2080.09
74.0059,1832.93
74.2699,1537.27
74.5339,1363.97
74.7979,1358.73
75.0619,1259.19
75.3259,1318.99
75.5899,1369.74
75.8539,1387.26
76.1179,1270.3
76.3819,1245.57
76.6459,1149.94
76.9099,1128.47
77.1739,1149.89
77.4379,1197.08
77.7019,1153.08
77.9659,1074.61
78.2299,1107.51
78.4939,1092.66
78.7579,1157.76
79.0219,1168.354
79.2859,1097.66
79.5499,1135.96
79.8139,1150.96
78.1859,1174.7
78.4499,1103.19
78.7139,1157.76
78.9779,1130.3
79.2419,1043.49
79.5059,1059.77
79.6599,1120.29

File: S16.csv
Pos. [°2?],Intensity [Counts]
7.3239,5906.18
7.5879,5887.585
7.8519,5759.94
8.1159,5443.48
8.3799,5437.41
8.6439,5282.561
8.9079,5166.31
9.1719,4901.94
9.4359,4773.39
9.6999,4556.88
9.9639,4732.18
10.2279,5313.19
10.4919,4276.31
10.7559,3942.34
11.0199,3815.73
11.2839,3864.54
11.5479,3635.95
11.8119,3510.64
12.0759,3506.8
12.3399,3475
12.6039,3323.12
12.8679,3419.6
13.1319,3448.762
13.3959,3526.22
13.6599,3687.53
13.9239,4232.247
14.1879,6109.37
14.4519,6184.973
14.7159,3458.9
14.9799,2881.291
15.2439,2831.84
15.5079,2637.66
15.7719,2582.75
16.0359,2626
16.2999,2475.63
16.5639,2397.96
16.8279,2382.85
17.0919,2389.25
17.3559,2416.93
17.6199,2284.7
17.8839,2319.84
18.1479,2224.23
18.4119,2308.36
18.6759,2224.84
18.9399,2155.2
19.2039,2180.34
19.4679,2250.64
19.7319,2148.229
19.9959,2144.117
20.2599,2258.846
20.5239,2289.24
20.7879,2303.46
21.0519,2215.79
21.3159,2310.39
21.5799,2264.7
21.8439,2444.45
22.1079,2338.35
22.3719,2488.33
22.6359,3062.35
22.8999,4323.97
23.1639,5892.26
23.4279,4980.9
23.6919,4714.05
23.9559,4478.17
24.2199,6152.22
24.4839,4568.43
24.7479,4075.32
25.0119,3770.17
25.2759,3549.96
25.5399,3653.9
25.8039,3351.49
26.0679,3335.17
26.3319,3195.38
26.5959,3271.46
26.8599,3321.7
27.1239,3105.02
27.3879,3350.28
27.6519,3134.321
27.9159,3197.383
28.1799,3449.86
28.4439,3353.24
28.7079,3865.94
28.9719,6155.48
29.2359,4212.883
29.4999,3960.53
29.7639,4051.79
30.0279,3087.76
30.2919,2917.01
30.5559,3011.05
30.8199,3840.05
31.0839,13657.7
31.3479,3131.94
31.6119,2993.65
31.8759,3010.48
32.1399,2857
32.4039,3193.4
32.6679,3261.53
32.9319,2651.71
33.1959,2358.96
33.4599,2240.42
33.7239,2225.91
33.9879,2142.18
34.2519,2110.65
34.5159,2272.62
34.7799,2287.6
35.0439,2225.07
35.3079,2184.86
35.5719,2374.46
35.8359,2095.57
36.0999,2018.89
36.3639,1971.1
36.6279,1966.39
36.8919,1993.44
37.1559,1950.36
37.4199,1851.69
37.6839,1822.22
37.9479,1728.15
38.2119,1747.297
38.4759,1672.91
38.7399,1703.96
39.0039,1761.12
39.2679,1593.05
39.5319,1749.46
39.7959,1815.96
40.0599,2080.04
40.3239,2386.228
40.5879,2767.63
40.8519,3520.58
41.1159,2833.09
41.3799,2654.85
41.6439,2680.25
41.9079,2816.51
42.1719,2618.031
42.4359,2294.44
42.6999,3024.2
42.9639,2341.24
43.2279,2388.05
43.4919,2245.34
43.7559,2368
44.0199,2514.46
44.2839,2450
44.5479,2407.03
44.8119,2773.31
45.0759,2665.63
45.3399,2245.89
45.6039,2126.09
45.8679,2221.31
46.1319,2681.41
46.3959,1906.499
46.6599,1767.06
46.9239,1778.15
47.1879,1931.5
47.4519,1695.51
47.7159,1659.36
47.9799,1690.07
48.2439,1733.52
48.5079,1643.12
48.7719,1692.92
49.0359,1729.69
49.2999,1606.71
49.5639,1607.52
49.8279,1949.15
50.0919,1559.53
50.3559,1451.56
50.6199,1487.26
50.8839,1451.81
51.1479,1452.64
51.4119,1476.08
51.6759,1434.36
51.9399,1382.98
52.2039,1416.21
52.4679,1427.998
52.7319,1461.62
52.9959,1579.64
53.2599,1964.85
53.5239,1743.11
53.7879,1723.436
54.0519,1524.81
54.3159,1393.77
54.5799,1451.34
54.8439,1482.487
55.1079,1464.72
55.3719,1454.4
55.6359,1418.04
55.8999,1354.36
56.1639,1420.315
56.4279,1442.75
56.6919,1396.36
56.9559,1333.72
57.2199,1361.11
57.4839,1322.01
57.7479,1362.65
58.0119,1308.68
58.2759,1284.76
58.5399,1388.52
58.8039,1394.89
59.0679,1867.43
59.3319,1336.22
59.5959,1402.11
59.8599,1331.268
60.1239,1389.52
60.3879,1278.62
60.6519,1164.7
60.9159,1175.56
61.1799,1164.99
61.4439,1197.99
61.7079,1280.1
61.9719,1706.331
62.2359,1251.24
62.4999,1253
62.7639,1291.29
63.0279,1268
63.2919,1398.72
63.5559,1458.1
63.8199,1492.184
64.0839,1566.2
64.3479,1590.58
64.6119,1830.644
64.8759,1944.96
65.1399,1807.572
65.4039,1759.35
65.6679,1553.43
65.9319,1509.67
66.1959,1517.58
66.4599,1403.759
66.7239,1498.88
66.9879,1390.36
67.2519,1367.48
67.5159,1318.96
67.7799,1332.3
68.0439,1304.9
68.3079,1279.16
68.5719,1274.93
68.8359,1226.21
69.0999,1222.18
69.3639,1237.13
69.6279,1182.15
69.8919,1124.82
70.1559,1245.06
70.4199,1284.47
70.6839,1230.51
70.9479,2140.72
71.2119,1408.57
71.4759,1293.92
71.7399,1370.13
72.0039,1292.62
72.2679,1380.83
72.5319,1428.68
72.7959,1475.63
73.0599,1571.09
73.3239,1685.852
73.5879,1876.97
73.8519,2078.06
74.1159,1720.5
74.3799,1480.05
74.6439,1376.34
74.9079,1267.85
75.1719,1224.32
75.4359,1295.94
75.6999,1404.21
75.9639,1438.636
76.2279,1322.23
76.4919,1173.87
76.7559,1197.92
77.0199,1124.148
77.2839,1173.16
77.5479,1199.96
77.8119,1134.17
78.0759,1124.41
78.3399,1103.58
78.6039,1116.88
78.8679,1109.22
79.1319,1159.644
79.3959,1063.44
79.6599,1101
79.2419,1043.49
79.5059,1059.77
79.6599,1120.29

File: S17.csv
Pos. [°2?],Intensity [Counts]
3.7819,17177
4.0459,13874.6
4.3099,11612.8
4.5739,9609.31
4.8379,8009.96
5.1019,6823.39
5.3659,6096.21
5.6299,5611.06
5.8939,5139.19
6.1579,4909.37
6.4219,4738.51
6.6859,4556.6
6.9499,4476.54
7.2139,4265.45
7.4779,4197.88
7.7419,4093.06
8.0059,3900.13
8.2699,3936
8.5339,3733.27
8.7979,3787.02
9.0619,3544.2
9.3259,3518.21
9.5899,3522.75
9.8539,3579.93
10.1179,3515.4
10.3819,3659.92
10.6459,3227.44
10.9099,3300.531
11.1739,3185.46
11.4379,3130.86
11.7019,3106.71
11.9659,3019.2
12.2299,3083.17
12.4939,3018.72
12.7579,2865.5
13.0219,2900.003
13.2859,2971.2
13.5499,3013.2
13.8139,3109.55
14.0779,3450.58
14.3419,4486.27
14.6059,3171.97
14.8699,2707.35
15.1339,2524.994
15.3979,2478.73
15.6619,2423.61
15.9259,2845.81
16.1899,2830.54
16.4539,2277.46
16.7179,2204.16
16.9819,2208.64
17.2459,2161.89
17.5099,2146.363
17.7739,1982.38
18.0379,2034.76
18.3019,1949.04
18.5659,2052.83
18.8299,1932.44
19.0939,1942.04
19.3579,1939.26
19.6219,1823.66
19.8859,1897.17
20.1499,1846.05
20.4139,1917.19
20.6779,2041.6
20.9419,2002.79
21.2059,1860.51
21.4699,1822.4
21.7339,1826.86
21.9979,1932.55
22.2619,1811.416
22.5259,1856.4
22.7899,2043.96
23.0539,2580.95
23.3179,2557.05
23.5819,2395.416
23.8459,2663.98
24.1099,3840.64
24.3739,12972.292
24.6379,2658.8
24.9019,2302.87
25.1659,2048.14
25.4299,2145.92
25.6939,3032.914
25.9579,2162.78
26.2219,1973.74
26.4859,1862.27
26.7499,2017.88
27.0139,2258.45
27.2779,1913.35
27.5419,2461.4
27.8059,2061.51
28.0699,2702.71
28.3339,2641.6
28.5979,2008.09
28.8619,2425.11
29.1259,2561.39
29.3899,2107.08
29.6539,2157
29.9179,2409.35
30.1819,1834.88
30.4459,2214.34
30.7099,3600.16
30.9739,25871.5
31.2379,6977.97
31.5019,3165.52
31.7659,2269.41
32.0299,9605.07
32.2939,2699.72
32.5579,4772.13
32.8219,3299.03
33.0859,1824.62
33.3499,1675
33.6139,1574
33.8779,1629.77
34.1419,1597.39
34.4059,1646.18
34.6699,1573.78
34.9339,1538.01
35.1979,1762
35.4619,1621.27
35.7259,1602.478
35.9899,1721.84
36.2539,1363.04
36.5179,1471.54
36.7819,1461.1
37.0459,1320.43
37.3099,1248.93
37.5739,1458.02
37.8379,1388.67
38.1019,1316.55
38.3659,1312.31
38.6299,1409.91
38.8939,1441.56
39.1579,1241.44
39.4219,1192.56
39.6859,1241.23
39.9499,1429.71
40.2139,1356.27
40.4779,1478.38
40.7419,1745.52
41.0059,1866.1
41.2699,1740.19
41.5339,1932.829
41.7979,1700.57
42.0619,1635.24
42.3259,1454.19
42.5899,1905.81
42.8539,4436.85
43.1179,1515.69
43.3819,1416.87
43.6459,1448.63
43.9099,1396.11
44.1739,1451.6
44.4379,1320.56
44.7019,1367.05
44.9659,1455.02
45.2299,1366.5
45.4939,1307.42
45.7579,1331.13
46.0219,1440.98
46.2859,3861.91
46.5499,1199.96
46.8139,1093.95
47.0779,1667.6
47.3419,1660.28
47.6059,1154
47.8699,1219.11
48.1339,1140.35
48.3979,1175.7
48.6619,1093.21
48.9259,1493.22
49.1899,1173.41
49.4539,1158.52
49.7179,5650.69
49.9819,1453.55
50.2459,1417.106
50.5099,1111.07
50.7739,982.5396
51.0379,1028.63
51.3019,950.2212
51.5659,976.4835
51.8299,945.2479
52.0939,982.5046
52.3579,977.0764
52.6219,943.8912
52.8859,978.6812
53.1499,1051.755
53.4139,1207.24
53.6779,2295.89
53.9419,1348.07
54.2059,1059.28
54.4699,995.3096
54.7339,998.7023
54.9979,953.7729
55.2619,1088.34
55.5259,961.177
55.7899,954.4688
56.0539,914.9205
56.3179,927.6581
56.5819,1040.05
56.8459,986.6903
57.1099,886.6433
57.3739,1009.177
57.6379,1032.67
57.9019,940.4957
58.1659,1048.32
58.4299,1042.744
58.6939,1415.14
58.9579,13134.4
59.2219,1734.29
59.4859,1467.13
59.7499,1111.41
60.0139,970.2302
60.2779,924.631
60.5419,889.8437
60.8059,874.1416
61.0699,775.3247
61.3339,825.8466
61.5979,875.6635
61.8619,861.4484
62.1259,875.2269
62.3899,820.5663
62.6539,940.9468
62.9179,901.6904
63.1819,843.2037
63.4459,992.6664
63.7099,1028.4
63.9739,999.5838
64.2379,953.2745
64.5019,1039.77
64.7659,4064.22
65.0299,1159.36
65.2939,1836.61
65.5579,978.3626
65.8219,901.9968
66.0859,889.5223
66.3499,899.5224
66.6139,808.1797
66.8779,894.4421
67.1419,881.1065
67.4059,876.9055
67.6699,930.1356
67.9339,858.0886
68.1979,825.941
68.4619,788.1002
68.7259,790.5664
68.9899,840.3567
69.2539,868.0945
69.5179,857.4337
69.7819,800.6195
70.0459,823.8055
70.3099,810.5489
70.5739,1068.11
70.8379,1904.81
71.1019,4311.65
71.3659,969.2386
71.6299,799.9439
71.8939,789.0358
72.1579,842.1768
72.4219,900.5453
72.6859,836.5663
72.9499,879.3569
73.2139,891
73.4779,926.7522
73.7419,967.2985
74.0059,1024.24
74.2699,1010.22
74.5339,891.9765
74.7979,839.5161
75.0619,815.646
75.3259,821.4451
75.5899,932.646
75.8539,1041.77
76.1179,1335.87
76.3819,845.339
76.6459,849.1594
76.9099,793.2538
77.1739,839.9202
77.4379,840.2919
77.7019,821.5244
77.9659,781.5635
78.2299,1258.78
78.4939,864.0593
78.7579,772.2506
79.0219,824.7522
79.2859,762.6105
79.5499,760.9912
79.8139,752.4605
79.9899,818.8141

File: S22.csv
Angle,Counts
6.8399,5386.997
7.1039,5264.42
7.3679,4993.26
7.6319,4788.9
7.8959,4690.66
8.1599,4456.68
8.4239,4333.03
8.6879,4228.34
8.9519,4186.47
9.2159,3989.92
9.4799,3755.857
9.7439,3758.49
10.0079,3775.152
10.2719,4310.25
10.5359,3345.84
10.7999,3368.9
11.0639,3285.89
11.3279,3114.73
11.5919,2970.2
11.8559,2965.73
12.1199,3303.83
12.3839,3006.116
12.6479,2880.66
12.9119,2896
13.1759,2886.793
13.4399,3007.18
13.7039,3002.91
13.9679,3333.31
14.2319,4416.21
14.4959,3671.73
14.7599,2795.87
15.0239,2569.93
15.2879,2603.16
15.5519,2426.34
15.8159,2541.027
16.0799,2667.879
16.3439,2320.11
16.6079,2278.02
16.8719,2255.065
17.1359,2260.6
17.3999,2239.43
17.6639,2221.61
17.9279,2145.06
18.1919,2100.23
18.4559,2038.38
18.7199,2052.67
18.9839,2081.99
19.2479,2002.81
19.5119,1995.3
19.7759,2017.41
20.0399,2084.27
20.3039,2034.92
20.5679,2260.36
20.8319,2056.43
21.0959,2055.58
21.3599,2103.72
21.6239,1981.12
21.8879,2010.35
22.1519,1988.63
22.4159,2149.063
22.6799,2382.19
22.9439,3062.68
23.2079,3622.412
23.4719,3225.97
23.7359,3259.838
23.9999,3391.91
24.2639,18059.4
24.5279,3735.49
24.7919,3199.52
25.0559,2760.46
25.3199,2571.38
25.5839,3097.92
25.8479,2543.964
26.1119,2351.28
26.3759,2446.21
26.6399,2490.1
26.9039,2632.79
27.1679,2392.61
27.4319,2788.34
27.6959,2271.69
27.9599,2607.96
28.2239,2906.1
28.4879,2456.3
28.7519,2934.64
29.0159,3478.19
29.2799,2638.17
29.5439,2577.36
29.8079,2897.36
30.0719,2235.6
30.3359,2820.51
30.5999,2874.35
30.8639,7620.98
31.1279,14777.9
31.3919,3921.19
31.6559,2452.17
31.9199,3450.9
32.1839,2262.123
32.4479,3870.87
32.7119,2515.467
32.9759,2258.56
33.2399,2099.81
33.5039,1845.27
33.7679,1763.19
34.0319,1835.1
34.2959,1959.48
34.5599,1894.834
34.8239,1923.68
35.0879,1860.69
35.3519,1878.48
35.6159,2115.99
35.8799,1958.01
36.1439,1623.86
36.4079,1705.7
36.6719,1730.49
36.9359,4320.19
37.1999,1717.51
37.4639,1658.15
37.7279,1609.01
37.9919,1509.07
38.2559,1571.6
38.5199,2680.871
38.7839,1665.379
39.0479,1570.87
39.3119,1469.6
39.5759,1625.973
39.8399,1621.771
40.1039,1606.59
40.3679,1853.16
40.6319,2073.95
40.8959,2338
41.1599,2129.97
41.4239,2022.39
41.6879,1942.73
41.9519,2113.65
42.2159,1965.977
42.4799,1990.5
42.7439,5407.32
43.0079,2132.49
43.2719,2586.92
43.5359,1730.07
43.7999,1782.73
44.0639,1867.99
44.3279,1680.99
44.5919,1674.8
44.8559,1850.42
45.1199,1817.05
45.3839,1682.75
45.6479,1581.12
45.9119,1677.3
46.1759,4375.15
46.4399,1483.34
46.7039,1473.04
46.9679,1622.64
47.2319,2573.62
47.4959,1572.84
47.7599,1819.55
48.0239,1441.94
48.2879,1529.68
48.5519,1410.791
48.8159,1415.83
49.0799,1360.02
49.3439,1357.54
49.6079,2115.623
49.8719,2062.65
50.1359,1287.56
50.3999,1244.48
50.6639,1210.89
50.9279,1257.93
51.1919,1243.54
51.4559,1198.37
51.7199,1225
51.9839,1199.79
52.2479,1265.9
52.5119,1226.74
52.7759,1262.09
53.0399,1395.76
53.3039,3352.5
53.5679,1580.47
53.8319,2185.9
54.0959,1217.41
54.3599,1173.4
54.6239,1206.87
54.8879,1136.75
55.1519,1159.6
55.4159,1202.83
55.6799,1524.72
55.9439,1185.42
56.2079,1180.27
56.4719,1133.682
56.7359,1115.05
56.9999,1043.62
57.2639,1147.18
57.5279,1141.32
57.7919,1120.96
58.0559,1146.76
58.3199,1094.24
58.5839,1323.68
58.8479,3395.82
59.1119,2978.18
59.3759,1641.343
59.6399,1380.03
59.9039,1147.291
60.1679,1209.98
60.4319,1110.22
60.6959,1040.36
60.9599,977.5555
61.2239,951.5857
61.4879,1021.55
61.7519,1078.447
62.0159,1075.79
62.2799,1206.8
62.5439,1166.59
62.8079,1165.66
63.0719,1152.99
63.3359,1219.72
63.5999,1242.13
63.8639,1204.15
64.1279,1211.85
64.3919,1264.24
64.6559,2494.72
64.9199,1407.53
65.1839,1786.52
65.4479,1418.43
65.7119,1195.43
65.9759,1157.44
66.2399,1323.6
66.5039,1649.17
66.7679,1312.11
67.0319,1132.2
67.2959,1039.84
67.5599,1173.63
67.8239,1086.86
68.0879,1103.77
68.3519,994.8212
68.6159,1010.66
68.8799,1002.05
69.1439,986.0971
69.4079,1135.39
69.6719,1106.82
69.9359,1102.94
70.1999,1026.07
70.4639,1130.41
70.7279,1289.94
70.9919,2989.6
71.2559,1275.19
71.5199,1082.83
71.7839,1039.41
72.0479,973.9661
72.3119,1119.04
72.5759,1129.65
72.8399,1175.642
73.1039,1287
73.3679,1206.58
73.6319,1311.72
73.8959,1301.29
74.1599,1203.51
74.4239,1062.195
74.6879,1026.97
74.9519,1106.91
75.2159,1101.82
75.4799,1143.88
75.7439,1425.08
76.0079,1845.71
76.2719,1287.07
76.5359,997.293
76.7999,1011.11
77.0639,999.6965
77.3279,992.1991
77.5919,994.6149
77.8559,927.5525
78.1199,1074.08
78.3839,1107.83
78.6479,1045.67
78.9119,1040.9
79.1759,902.4933
79.4399,918.81
76.6459,849.1594
76.7999,754.8913