Folder: Ashfield-REE/RP-XRD-S2-2022 (part 3)

File: Sample_4_G4.csv
Pos. [°2?],Intensity [Counts]
5.1504,2918.05
5.4034,2632.62
5.6564,2347.64
5.9094,2092.16
6.1624,1996.64
6.4154,1926.99
6.6684,1808.77
6.9214,1858.9
7.1744,1822.18
7.4274,1780.93
7.6804,1736.2
7.9334,1762.96
8.1864,1699.702
8.4394,1608.24
8.6924,1715.67
8.9454,1656.91
9.1984,1666.53
9.4514,1793.92
9.7044,1747.53
9.9574,1694.758
10.2104,1840.11
10.4634,1664
10.7164,1561.81
10.9694,1596.17
11.2224,1670.3
11.4754,1587.47
11.7284,1595.9
11.9814,1572.525
12.2344,1587.45
12.4874,1540.56
12.7404,1471.65
12.9934,1547.07
13.2464,1500.14
13.4994,1455.83
13.7524,1516.61
14.0054,1574.75
14.2584,1690.83
14.5114,1629.16
14.7644,1414.81
15.0174,1348.593
15.2704,1451.772
15.5234,1363.67
15.7764,1378.239
16.0294,1337.79
16.2824,1341.58
16.5354,1305.82
16.7884,1303.4
17.0414,1307.29
17.2944,1306.59
17.5474,1283.34
17.8004,1318.56
18.0534,1243.93
18.3064,1253.1
18.5594,1274.29
18.8124,1207.57
19.0654,1195.78
19.3184,1204.14
19.5714,1211.5
19.8244,1232.48
20.0774,1216.71
20.3304,1232.95
20.5834,1226.15
20.8364,1198.65
21.0894,1266.63
21.3424,1323.81
21.5954,1219.14
21.8484,1264.38
22.1014,1202.75
22.3544,1261.36
22.6074,1257.37
22.8604,1265.37
23.1134,1418.47
23.3664,1443.26
23.6194,1374.9
23.8724,1449.19
24.1254,1870.28
24.3784,5659.69
24.6314,1480.37
24.8844,1343.46
25.1374,1299.48
25.3904,1182.14
25.6434,1277.47
25.8964,1268.4
26.1494,1221.12
26.4024,1206.84
26.6554,1216.28
26.9084,1220.91
27.1614,1177.22
27.4144,1222.36
27.6674,1210.43
27.9204,1138.68
28.1734,1291.22
28.4264,1237.05
28.6794,1189.99
28.9324,1278.9
29.1854,1217.41
29.4384,1218.15
29.6914,1139.64
29.9444,1189.02
30.1974,1140.37
30.4504,1272.71
30.7034,1604.49
30.9564,6773.53
31.2094,5409.27
31.4624,1523.23
31.7154,1179.92
31.9684,1429.04
32.2214,1207.54
32.4744,1143.56
32.7274,1200.12
32.9804,1188.04
33.2334,1641.77
33.4864,1227.367
33.7394,1078.76
33.9924,1022.04
34.2454,1014.9
34.4984,1076.818
34.7514,989.8406
35.0044,958.0979
35.2574,959.4111
35.5104,973.3583
35.7634,906.1103
36.0164,962.3127
36.2694,956.7075
36.5224,945.7936
36.7754,1016.617
37.0284,2858.61
37.2814,970.6688
37.5344,883.3265
37.7874,928.8941
38.0404,861.1452
38.2934,981.5765
38.5464,2193.21
38.7994,1067.52
39.0524,901.4444
39.3054,842.6167
39.5584,837.7859
39.8114,860.2309
40.0644,865.3424
40.3174,827.7513
40.5704,834.6353
40.8234,876.4161
41.0764,957.8768
41.3294,875.661
41.5824,872.3346
41.8354,839.917
42.0884,851.6701
42.3414,864.3483
42.5944,1096.29
42.8474,3137.19
43.1004,1061.38
43.3534,2009.61
43.6064,859.6919
43.8594,825.3921
44.1124,921.6202
44.3654,809.7203
44.6184,778.8999
44.8714,816.2913
45.1244,857.4389
45.3774,866.6375
45.6304,799.864
45.8834,779.9263
46.1364,1355.39
46.3894,910.445
46.6424,778.2411
46.8954,794.2805
47.1484,1644.12
47.4014,897.9791
47.6544,1220.91
47.9074,929.1588
48.1604,766.0904
48.4134,710.0382
48.6664,722.0403
48.9194,705.0515
49.1724,737.7413
49.4254,722.2095
49.6784,1313.43
49.9314,1146.1
50.1844,704.2264
50.4374,667.001
50.6904,674.7183
50.9434,685.6071
51.1964,667.5289
51.4494,691.3271
51.7024,686.2503
51.9554,658.8233
52.2084,654.2212
52.4614,664.6414
52.7144,659.8124
52.9674,703.3923
53.2204,896.3637
53.4734,1105.7
53.7264,1478.12
53.9794,772.6107
54.2324,684.6338
54.4854,649
54.7384,649.9517
54.9914,679.812
55.2444,656.6214
55.4974,841.9005
55.7504,1185.45
56.0034,781.9728
56.2564,684.5923
56.5094,674.6737
56.7624,667.531
57.0154,605.9158
57.2684,587.1444
57.5214,611.3421
57.7744,599.4085
58.0274,624.3956
58.2804,615.5753
58.5334,687.6833
58.7864,800.7287
59.0394,2491.44
59.2924,719.9202
59.5454,697.3113
59.7984,595.0277
60.0514,576.6203
60.3044,587.8795
60.5574,590.3769
60.8104,581.179
61.0634,594.6993
61.3164,610.6597
61.5694,570.2486
61.8224,570.6718
62.0754,573.8727
62.3284,559.857
62.5814,558.6115
62.8344,548.149
63.0874,578.7903
63.3404,587.4164
63.5934,603.9738
63.8464,569.1636
64.0994,587.8193
64.3524,631.1695
64.6054,738.727
64.8584,1207.66
65.1114,627.3717
65.3644,776.5586
65.6174,628.697
65.8704,639.6988
66.1234,737.4218
66.3764,1547.37
66.6294,1043.81
66.8824,732.551
67.1354,588.6274
67.3884,585.5537
67.6414,586.2222
67.8944,537.9409
68.1474,610.3374
68.4004,518.9221
68.6534,560.6435
68.9064,523.8287
69.1594,559.7537
69.4124,589.3803
69.6654,594.2944
69.9184,582.0302
70.1714,561.7379
70.4244,559.1098
70.6774,603.032
70.9304,2862.66
71.1834,1831.03
71.4364,607.4338
71.6894,528.1118
71.9424,540.8598
72.1954,538.0961
72.4484,569.6592
72.7014,570.3895
72.9544,641.8883
73.2074,662.4944
73.4604,547.6228
73.7134,530.0414
73.9664,561.3395
74.2194,497.7049
74.4724,492.2749
74.7254,529.9637
74.9784,532.752
75.2314,510.0612
75.4844,523.9003
75.7374,535.8257
75.9904,792.6931
76.2434,868.0181
76.4964,672.1545
76.7494,499.159
77.0024,499.9107
77.2554,465.7339
77.5084,529.9785
77.7614,531.5699
78.0144,488.1301
78.2674,582.523
78.5204,514.7809
78.7734,538.4275
79.0264,493.3001
79.2794,519.4168
79.5324,457.6861
79.7854,486.0422
79.9394,537.7268

File: Sample_A.csv
Angle,Counts
8.1379,4861.22
8.3799,4712.55
8.6219,4559.43
8.8639,4441.22
9.1059,4383.66
9.3479,4389.13
9.5899,4204.83
9.8319,4136.08
10.0739,4353.84
10.3159,4768.87
10.5579,3852.57
10.7999,3721.797
11.0419,3600.7
11.2839,3422.08
11.5259,3394.48
11.7679,3381.77
12.0099,3353.55
12.2519,3417.29
12.4939,3232.65
12.7359,3247.641
12.9779,3295.72
13.2199,3221.36
13.4619,3346.46
13.7039,3485.53
13.9459,3872.17
14.1879,5353.21
14.4299,5515.48
14.6719,3271.08
14.9139,2837.5
15.1559,2735.28
15.3979,2681.17
15.6399,2550.5
15.8819,2580.121
16.1239,2934.64
16.3659,2466.464
16.6079,2259.35
16.8499,2291.32
17.0919,2340.62
17.3339,2316.29
17.5759,2282.59
17.8179,2252.19
18.0599,2178.52
18.3019,2196.06
18.5439,2205.19
18.7859,2185.45
19.0279,2149.124
19.2699,2085.75
19.5119,2152.8
19.7539,2179.475
19.9959,2137.95
20.2379,2173.17
20.4799,2249.69
20.7219,2286.75
20.9639,2108.02
21.2059,2170.35
21.4479,2055.7
21.6899,2111.718
21.9319,2171.66
22.1739,2225.13
22.4159,2387.92
22.6579,2579.2
22.8999,3411.23
23.1419,4529.32
23.3839,3904.73
23.6259,3792.89
23.8679,3662.2
24.1099,4832.13
24.3519,6755.16
24.5939,3496.96
24.8359,3359.11
25.0779,3101.07
25.3199,3021.22
25.5619,3845.89
25.8039,2999.01
26.0459,2921.73
26.2879,2804.41
26.5299,2738.47
26.7719,2882.55
27.0139,3165.66
27.2559,2664.2
27.4979,3142.54
27.7399,3000.474
27.9819,2983.45
28.2239,3634.64
28.4659,2909.18
28.7079,3371.86
28.9499,4823.194
29.1919,3532.92
29.4339,3236.31
29.6759,3185.98
29.9179,2991.62
30.1599,2493.48
30.4019,2584.399
30.6439,3166.77
30.8859,7994.93
31.1279,16380.9
31.3699,3121.37
31.6119,2704.36
31.8539,2870.04
32.0959,3208.86
32.3379,3342.9
32.5799,4656.528
32.8219,2818.31
33.0639,2149.47
33.3059,2044.27
33.5479,1915.41
33.7899,1905.48
34.0319,1884.88
34.2739,1960.71
34.5159,1848.09
34.7579,1932.5
34.9999,1930.91
35.2419,1959.72
35.4839,2102.33
35.7259,1706.289
35.9679,1876.78
36.2099,1676.31
36.4519,1879.84
36.6939,1695.8
36.9359,2666.67
37.1779,1622.401
37.4199,1665.31
37.6619,1576.92
37.9039,1581.66
38.1459,1574.2
38.3879,1508.33
38.6299,1520.77
38.8719,1391.06
39.1139,1418.94
39.3559,1460.98
39.5979,1589.85
39.8399,1509.35
40.0819,1641.59
40.3239,1790.55
40.5659,2050.61
40.8079,2703.41
41.0499,2279.79
41.2919,2170.64
41.5339,2056.8
41.7759,1998.84
42.0179,2247.72
42.2599,1962.83
42.5019,2002.15
42.7439,4680.46
42.9859,1912.11
43.2279,1899.16
43.4699,1735.44
43.7119,1796.714
43.9539,1886.43
44.1959,1982.832
44.4379,1787.72
44.6799,1994.643
44.9219,2194.51
45.1639,1970.07
45.4059,1808.14
45.6479,1684.56
45.8899,1789.48
46.1319,3470.32
46.3739,1518.04
46.6159,1430.65
46.8579,1427.39
47.0999,2352.89
47.3419,1435.64
47.5839,1430.27
47.8259,1427.03
48.0679,1400.84
48.3099,1453.74
48.5519,1291.11
48.7939,1373.08
49.0359,1574
49.2779,1351.73
49.5199,1437.226
49.7619,2894.875
50.0039,1464.53
50.2459,1269.56
50.4879,1185.72
50.7299,1209.5
50.9719,1225.91
51.2139,1189.5
51.4559,1177.94
51.6979,1187.58
51.9399,1146.33
52.1819,1262.65
52.4239,1187.81
52.6659,1197.56
52.9079,1285.01
53.1499,1436.32
53.3919,1681.74
53.6339,1874.262
53.8759,1589.37
54.1179,1234.07
54.3599,1193.09
54.6019,1121.115
54.8439,1170.34
55.0859,1188.62
55.3279,1242.565
55.5699,1257.38
55.8119,1180.45
56.0539,1166.27
56.2959,1224.26
56.5379,1334.79
56.7799,1150.51
57.0219,1112.35
57.2639,1087.96
57.5059,1120.75
57.7479,1182.047
57.9899,1219.48
58.2319,1218.56
58.4739,1252
58.7159,1434.28
58.9579,6835.05
59.1999,1311.42
59.4419,1299.99
59.6839,1162.67
59.9259,1126.464
60.1679,1299.37
60.4099,1028.46
60.6519,985.105
60.8939,925.697
61.1359,866.4972
61.3779,999.7194
61.6199,968.89
61.8619,1017.45
62.1039,981.7538
62.3459,969.0911
62.5879,956.9289
62.8299,1028.98
63.0719,1033.239
63.3139,1082.27
63.5559,1070.34
63.7979,1196.35
64.0399,1260.81
64.2819,1222.19
64.5239,1364.272
64.7659,1795.91
65.0079,1380.56
65.2499,1659.96
65.4919,1253.872
65.7339,1185.35
65.9759,1164.266
66.2179,1160.46
66.4599,1202.93
66.7019,1174.06
66.9439,1183.217
67.1859,1057.302
67.4279,975.4368
67.6699,1002.861
67.9119,979.6811
68.1539,982.2546
68.3959,983.3601
68.6379,1010.6
68.8799,996.1077
69.1219,997.3013
69.3639,993.6212
69.6059,961.2583
69.8479,916.5778
70.0899,966.8643
70.3319,975.9022
70.5739,1006.63
70.8159,1642.51
71.0579,2251.134
71.2999,987.3844
71.5419,1010.29
71.7839,1001.46
72.0259,1011.29
72.2679,997.5451
72.5099,1080.97
72.7519,1092.66
72.9939,1179.11
73.2359,1158.69
73.4779,1307.69
73.7199,1518.315
73.9619,1498.58
74.2039,1356.907
74.4459,1271.66
74.6879,1043.75
74.9299,1042.72
75.1719,998.6932
75.4139,1041.88
75.6559,1023.92
75.8979,1211.42
76.1399,1119.71
76.3819,946.5162
76.6239,895.9562
76.8659,829.1618
77.1079,921.1521
77.3499,967.0499
77.5919,951.9797
77.8339,937.2831
78.0759,883.4656
78.3179,872.4732
78.5599,884.7948
78.8019,953.7501
79.0439,879.8124
79.2859,881.3539
79.5279,869.6874
79.7699,879.1868
79.9899,877.5912

File: Sample_B.csv
Pos. [°2?],Intensity [Counts]
8.3359,4739.47
8.5779,4598.63
8.8199,4442.06
9.0619,4370.1
9.3039,4195.83
9.5459,4097.5
9.7879,3927.53
10.0299,4069.21
10.2719,4341.94
10.5139,3618.49
10.7559,3579.8
10.9979,3544.175
11.2399,3378.33
11.4819,3230.81
11.7239,3208.34
11.9659,3220.09
12.2079,3245.558
12.4499,3179.34
12.6919,3115.69
12.9339,3057.38
13.1759,3115.883
13.4179,3292.51
13.6599,3394.23
13.9019,3918.886
14.1439,4988.42
14.3859,6028.24
14.6279,3486.09
14.8699,2822.39
15.1119,2651.06
15.3539,2703.49
15.5959,2563.85
15.8379,2652.46
16.0799,2719.7
16.3219,2393.67
16.5639,2340.01
16.8059,2357.13
17.0479,2386.75
17.2899,2291.55
17.5319,2252.77
17.7739,2195.74
18.0159,2234.38
18.2579,2218.89
18.4999,2153.34
18.7419,2149.28
18.9839,2173.56
19.2259,2208.94
19.4679,2201.82
19.7099,2163.75
19.9519,2213.64
20.1939,2224.04
20.4359,2198.174
20.6779,2298.112
20.9199,2194.53
21.1619,2204.22
21.4039,2168.16
21.6459,2182
21.8879,2244.39
22.1299,2226.76
22.3719,2406.4
22.6139,2682.25
22.8559,3419.83
23.0979,5252.48
23.3399,4548.68
23.5819,4320.31
23.8239,4168.05
24.0659,4546.2
24.3079,8438.49
24.5499,3921.52
24.7919,3552.47
25.0339,3398.61
25.2759,3202.92
25.5179,3347.63
25.7599,3201.51
26.0019,3066.22
26.2439,2990.29
26.4859,2891.48
26.7279,3032.16
26.9699,3067.87
27.2119,2818.35
27.4539,3058.87
27.6959,2874.813
27.9379,3044.27
28.1799,3214.4
28.4219,3078.55
28.6639,3394.53
28.9059,5039.22
29.1479,3930.62
29.3899,3619.6
29.6319,3371.29
29.8739,3075.89
30.1159,2657.177
30.3579,2768.97
30.5999,3070.81
30.8419,5544.6
31.0839,19562.8
31.3259,3238.02
31.5679,2959.32
31.8099,2919.32
32.0519,4920.71
32.2939,4254.86
32.5359,6517.12
32.7779,2707.45
33.0199,2327.07
33.2619,2145.1
33.5039,2057.66
33.7459,1933.976
33.9879,2037.52
34.2299,1973.04
34.4719,2051.47
34.7139,2093.31
34.9559,2071.46
35.1979,2154.65
35.4399,2087.42
35.6819,1824.7
35.9239,2038.43
36.1659,1771.54
36.4079,1952.61
36.6499,1801.32
36.8919,1882.53
37.1339,1762.87
37.3759,1730.61
37.6179,1637.32
37.8599,1720.73
38.1019,1584.91
38.3439,1564.71
38.5859,1623.56
38.8279,1529.29
39.0699,1528.84
39.3119,1504.1
39.5539,1655.13
39.7959,1694.25
40.0379,1726.34
40.2799,2016.77
40.5219,2238.22
40.7639,3012.94
41.0059,2702.58
41.2479,2437.565
41.4899,2341.67
41.7319,2298.73
41.9739,2517.73
42.2159,2154.65
42.4579,2141.578
42.6999,4414.06
42.9419,2064.88
43.1839,2013.71
43.4259,1895.86
43.6679,2039.48
43.9099,2089.68
44.1519,2187.77
44.3939,2124.68
44.6359,2245.775
44.8779,2443.11
45.1199,2391.19
45.3619,1990.81
45.6039,1990.43
45.8459,2023.98
46.0879,2697.55
46.3299,1802.28
46.5719,1582.26
46.8139,1648.224
47.0559,1912.24
47.2979,1747.13
47.5399,1469.93
47.7819,1560.63
48.0239,1545.29
48.2659,1604.69
48.5079,1457.37
48.7499,1476.79
48.9919,1627.198
49.2339,1495.41
49.4759,1536.65
49.7179,3289.3
49.9599,1552.65
50.2019,1383.863
50.4439,1312.13
50.6859,1330.73
50.9279,1298.38
51.1699,1362.08
51.4119,1316.92
51.6539,1285.528
51.8959,1252.91
52.1379,1263.834
52.3799,1280.68
52.6219,1299.88
52.8639,1389.264
53.1059,1528.81
53.3479,1774.11
53.5899,1713.65
53.8319,1873.67
54.0739,1342.239
54.3159,1351.05
54.5579,1362.68
54.7999,1271.15
55.0419,1311.421
55.2839,1340.48
55.5259,1246.71
55.7679,1291.76
56.0099,1196.39
56.2519,1311.86
56.4939,1348.85
56.7359,1243.82
56.9779,1182.01
57.2199,1233.62
57.4619,1220.059
57.7039,1182.66
57.9459,1241.51
58.1879,1187.48
58.4299,1229.99
58.6719,1389.66
58.9139,5603.58
59.1559,1483.14
59.3979,1326.3
59.6399,1272.14
59.8819,1234.68
60.1239,1296.15
60.3659,1161.96
60.6079,1060.36
60.8499,971.9768
61.0919,964.2009
61.3339,1070.69
61.5759,1018.82
61.8179,1116.39
62.0599,1114.584
62.3019,1090.19
62.5439,1136.24
62.7859,1150.06
63.0279,1092.39
63.2699,1197.85
63.5119,1240.37
63.7539,1274.73
63.9959,1360.12
64.2379,1396.76
64.4799,1471.13
64.7219,1927.7
64.9639,1574.54
65.2059,1839.01
65.4479,1563.4
65.6899,1416.65
65.9319,1329.56
66.1739,1264.28
66.4159,1344.44
66.6579,1337.13
66.8999,1285.32
67.1419,1183.52
67.3839,1145.53
67.6259,1145.53
67.8679,1170.45
68.1099,1127.62
68.3519,1154.88
68.5939,1104.93
68.8359,1107.14
69.0779,1052.49
69.3199,1090.25
69.5619,1027.76
69.8039,1045.04
70.0459,1086.51
70.2879,1126.14
70.5299,1096.35
70.7719,1432.77
71.0139,1915.83
71.2559,1167.44
71.4979,1123.59
71.7399,1066.92
71.9819,1090.11
72.2239,1129.14
72.4659,1181.76
72.7079,1258.73
72.9499,1331.02
73.1919,1393.45
73.4339,1489.71
73.6759,1769.07
73.9179,1737.29
74.1599,1390.09
74.4019,1260.103
74.6439,1200.43
74.8859,1145.19
75.1279,1192.59
75.3699,1237.47
75.6119,1194.52
75.8539,1325.49
76.0959,1247.44
76.3379,1081.35
76.5799,1022.196
76.8219,1009.23
77.0639,1005.94
77.3059,1033.61
77.5479,1047.18
77.7899,1037.8
78.0319,986.27
78.2739,1016.88
78.5159,996.935
78.7579,1002.79
78.9999,1021.416
79.2419,966.4909
79.4839,980.0342
79.7259,1010.43
79.7479,1006.06

File: Sample_D.csv
Pos. [°2?],Intensity [Counts]
7.5439,4942.32
7.7859,4932.64
8.0279,4783.04
8.2699,4639.37
8.5119,4403.27
8.7539,4413.56
8.9959,4225.92
9.2379,4150.1
9.4799,3932.85
9.7219,3813.33
9.9639,3819.1
10.2059,4244.24
10.4479,3682.79
10.6899,3417.001
10.9319,3320.47
11.1739,3275.01
11.4159,3247.09
11.6579,3197.18
11.8999,3157.584
12.1419,3201.471
12.3839,3023.46
12.6259,3056.37
12.8679,3034.62
13.1099,2997.943
13.3519,3017.37
13.5939,3022.13
13.8359,3308.89
14.0779,3844.24
14.3199,5146.14
14.5619,3471.92
14.8039,2793.1
15.0459,2564.39
15.2879,2618.584
15.5299,2454.42
15.7719,2585.78
16.0139,2581.35
16.2559,2314.81
16.4979,2369.16
16.7399,2220.68
16.9819,2220.76
17.2239,2145.61
17.4659,2225.39
17.7079,2156.78
17.9499,2107.48
18.1919,2035.24
18.4339,2196.73
18.6759,2016.27
18.9179,2063.23
19.1599,2072.05
19.4019,2011.19
19.6439,1952.75
19.8859,2004.8
20.1279,2038.31
20.3699,2070.29
20.6119,2292.52
20.8539,1995.73
21.0959,2112.29
21.3379,2061.71
21.5799,1972.72
21.8219,2029.21
22.0639,2101.71
22.3059,2060.1
22.5479,2217.24
22.7899,2580.7
23.0319,3590.33
23.2739,3618.93
23.5159,3368.26
23.7579,3388.86
23.9999,3670.55
24.2419,19263
24.4839,3769.17
24.7259,3573.2
24.9679,3060.28
25.2099,2885.6
25.4519,2662.79
25.6939,3159.04
25.9359,2592.75
26.1779,2431.36
26.4199,2386.25
26.6619,2487.87
26.9039,2747.427
27.1459,2296.58
27.3879,2691.8
27.6299,2247.62
27.8719,2378.82
28.1139,2699.11
28.3559,2573.04
28.5979,2537.21
28.8399,3229.91
29.0819,3311.85
29.3239,2782.79
29.5659,2676.27
29.8079,3137.37
30.0499,2287.66
30.2919,2306.81
30.5339,2814.48
30.7759,4429.8
31.0179,71255
31.2599,3964.18
31.5019,3076.6
31.7439,2304.63
31.9859,5702.93
32.2279,2303.49
32.4699,3370.91
32.7119,2582.57
32.9539,2318.08
33.1959,1838.02
33.4379,1793.4
33.6799,1769.48
33.9219,1785.68
34.1639,2188.83
34.4059,3081.44
34.6479,1969.35
34.8899,1777.91
35.1319,1809.2
35.3739,1757.85
35.6159,1729.129
35.8579,1698
36.0999,1616.22
36.3419,1518.86
36.5839,1624.6
36.8259,1553
37.0679,1507.9
37.3099,1556.99
37.5519,1558.79
37.7939,1516
38.0359,1458.32
38.2779,1490.29
38.5199,1545.56
38.7619,1599.83
39.0039,1568.93
39.2459,1453.8
39.4879,1459.01
39.7299,1475.59
39.9719,1545.5
40.2139,1570.51
40.4559,1872.72
40.6979,2139.68
40.9399,2254.42
41.1819,2411.74
41.4239,1973.62
41.6659,2069.7
41.9079,2149.18
42.1499,2210.89
42.3919,1956.56
42.6339,4127.151
42.8759,2246.32
43.1179,1995.4
43.3599,1804.64
43.6019,1605.54
43.8439,1735.09
44.0859,1836.9
44.3279,1751.96
44.5699,1747.36
44.8119,1784.63
45.0539,1855.33
45.2959,1648.83
45.5379,1652.12
45.7799,1642.72
46.0219,1965.28
46.2639,3742.42
46.5059,1494.53
46.7479,1340.65
46.9899,1668.84
47.2319,2515.72
47.4739,1385.4
47.7159,1355.18
47.9579,1365.92
48.1999,1432.24
48.4419,1432.85
48.6839,1313.9
48.9259,1430.43
49.1679,1303.44
49.4099,1264.07
49.6519,3145.005
49.8939,1653.328
50.1359,1306.51
50.3779,1197.94
50.6199,1413.282
50.8619,1288.15
51.1039,1166.59
51.3459,1120.1
51.5879,1173.67
51.8299,1188.82
52.0719,1111.53
52.3139,1181.31
52.5559,1140.5
52.7979,1150.23
53.0399,1237.89
53.2819,1442.35
53.5239,1419.54
53.7659,2587.43
54.0079,1217.57
54.2499,1191.65
54.4919,1151.93
54.7339,1161.38
54.9759,1151.96
55.2179,1195.43
55.4599,1323.15
55.7019,1288.54
55.9439,1470.64
56.1859,1181.18
56.4279,1259.337
56.6699,1251.38
56.9119,1195.17
57.1539,1219.82
57.3959,1139.79
57.6379,1122.69
57.8799,1174.39
58.1219,1081.9
58.3639,1100.95
58.6059,1253.55
58.8479,3043.67
59.0899,5091.48
59.3319,1253.626
59.5739,1225.96
59.8159,1071.77
60.0579,1033.4
60.2999,1024.91
60.5419,1027.73
60.7839,984.9233
61.0259,965.8046
61.2679,1011.47
61.5099,1096.8
61.7519,996.4929
61.9939,1012.57
62.2359,1022.83
62.4779,1059.64
62.7199,1186.04
62.9619,1159.39
63.2039,1135.89
63.4459,1131.33
63.6879,1118.16
63.9299,1249.71
64.1719,1236.47
64.4139,1232.66
64.6559,2704.29
64.8979,1576.64
65.1399,1398.35
65.3819,1463.82
65.6239,1129.35
65.8659,1113.37
66.1079,1053.97
66.3499,1097.48
66.5919,1017
66.8339,1145.12
67.0759,1080.991
67.3179,1010.99
67.5599,1101
67.8019,1080.8
68.0439,1017.12
68.2859,969.0747
68.5279,989.7828
68.7699,958.7752
69.0119,993.4297
69.2539,1022.37
69.4959,1011.34
69.7379,1011.61
69.9799,1044.335
70.2219,1023.8
70.4639,1129.39
70.7059,1123.75
70.9479,5913.23
71.1899,1639.52
71.4319,1043.975
71.6739,1005.23
71.9159,1053.57
72.1579,1022.26
72.3999,1080.18
72.6419,1031.87
72.8839,1106.55
73.1259,1172.05
73.3679,1180.48
73.6099,1254.543
73.8519,1419.89
74.0939,1192.12
74.3359,1076.07
74.5779,1044.16
74.8199,1009.26
75.0619,1044.68
75.3039,992.9554
75.5459,1034.104
75.7879,1106.29
76.0299,2533.23
76.2719,1293.2
76.5139,954.8524
76.7559,951.2331
76.9979,974.0491
77.2399,981.5704
77.4819,959.7246
77.7239,904.2377
77.9659,928.4187
78.2079,1089.13
78.4499,943.8633
78.6919,869.2991
78.9339,921.8806
79.1759,892.6641
79.4179,919.9294
79.6599,921.0781
79.7479,961.9748